NeU Anaritics: NX (C) NeU Corporation. 2020. All rights reserved
Data format version 1.0
Bluetooth Address,C0:84:40:37:5D:42
""
Device time,Headset time(sec),HbT change(left subtracted),HbT change(right subtracted),Estimated pulse rate,HbT change(left SD1cm),HbT change(left SD3cm),HbT change(right SD1cm),HbT change(right SD3cm),saturation(left SD1cm),saturation(left SD3cm),saturation(right SD1cm),saturation(right SD3cm),noise detection flag,Mark,Accerelo-X,Accerelo-Y,Accerelo-Z,Gyro-X,Gyro-Y,Gyro-Z,Button
2020-05-10 21:33:02 +0900,0.0,0.0,0.0,0.0,0.0,0.0,0.0,0.0,0,0,0,0,0,282:FRAME_rest.png,0.0,0.0,0.0,0.732422,1.34277,16.1133,
2020-05-10 21:33:03 +0900,0.1,-0.05305000000000071,-41.5888,0.0,-0.03662999999999972,-0.08968000000000043,41.5888,0.0,0,0,0,0,1,282:FRAME_rest.png,0.0,0.0,0.0,3.23486,2.38037,16.7847,
2020-05-10 21:33:03 +0900,0.2,-0.05682000000000009,-41.5888,0.0,-0.03943999999999992,-0.09626000000000001,41.5888,0.0,0,0,0,0,1,282:FRAME_rest.png,0.0,0.0,0.0,1.83105,5.31006,13.7329,
2020-05-10 21:33:03 +0900,0.30000000000000004,-0.060100000000000264,-43.02719999999999,0.0,-0.03943999999999992,-0.09954000000000018,41.5888,-1.4383999999999943,0,0,0,0,1,282:FRAME_rest.png,0.0,0.0,0.0,3.54004,9.46045,17.334,
2020-05-10 21:33:03 +0900,0.4,-0.09279000000000082,-43.02719999999999,0.0,-0.05903999999999954,-0.15183000000000035,41.5888,-1.4383999999999943,0,0,0,0,1,282:FRAME_rest.png,0.0,0.0,0.0,2.0752,10.8032,17.0288,
2020-05-10 21:33:03 +0900,0.5,-0.1245800000000008,-43.02719999999999,0.0,-0.07577999999999996,-0.20036000000000076,41.5888,-1.4383999999999943,0,0,0,0,1,282:FRAME_rest.png,0.0,0.0,0.0,1.95312,10.0708,11.6577,
2020-05-10 21:33:03 +0900,0.6000000000000001,-0.15359000000000034,-44.142999999999994,0.0,-0.09802,-0.25161000000000033,41.5888,-2.5541999999999945,0,0,0,0,1,282:FRAME_rest.png,0.0,0.0,0.0,4.76074,7.75146,18.7988,
2020-05-10 21:33:03 +0900,0.7000000000000001,-0.19363000000000063,-45.05459999999999,0.0,-0.11186000000000007,-0.3054900000000007,41.5888,-3.4657999999999944,0,0,0,0,1,282:FRAME_rest.png,0.0,0.0,0.0,3.11279,5.43213,27.4048,
2020-05-10 21:33:03 +0900,0.8,-0.18577000000000066,-45.05459999999999,0.0,-0.07857000000000003,-0.2643400000000007,41.5888,-3.4657999999999944,0,0,0,0,1,282:FRAME_rest.png,0.0,0.0,0.0,4.3335,2.68555,21.5454,
2020-05-10 21:33:03 +0900,0.9,-0.17980000000000107,-44.142999999999994,0.0,-0.05903999999999954,-0.2388400000000006,41.5888,-2.5541999999999945,0,0,0,0,1,282:FRAME_rest.png,0.0,0.0,0.0,-4.88281,-2.62451,15.1978,
2020-05-10 21:33:03 +0900,1.0,-0.1925700000000008,-44.142999999999994,0.0,-0.05903999999999954,-0.25161000000000033,41.5888,-2.5541999999999945,0,0,0,0,1,282:FRAME_rest.png,0.0,0.0,0.0,-7.14111,-8.42285,9.64355,
2020-05-10 21:33:04 +0900,1.1,-0.19933000000000067,-44.142999999999994,0.0,-0.06182999999999961,-0.2611600000000003,41.5888,-2.5541999999999945,0,0,0,0,1,282:FRAME_rest.png,0.0,0.0,0.0,-8.60596,-14.0991,-5.00488,
2020-05-10 21:33:04 +0900,1.2000000000000002,-0.21316000000000113,-43.02719999999999,0.0,-0.07020999999999944,-0.28337000000000057,41.5888,-1.4383999999999943,0,0,0,0,1,282:FRAME_rest.png,0.0,0.0,0.0,-11.3525,-13.1226,-7.99561,
2020-05-10 21:33:04 +0900,1.3,-0.2060600000000008,-41.5888,0.0,-0.0646299999999993,-0.2706900000000001,41.5888,0.0,0,0,0,0,1,282:FRAME_rest.png,0.0,0.0,0.0,-13.4277,-7.75146,-8.97217,
2020-05-10 21:33:04 +0900,1.4000000000000001,-0.1536400000000011,-43.02719999999999,0.0,-0.03381999999999952,-0.18746000000000063,41.5888,-1.4383999999999943,0,0,0,0,1,282:FRAME_rest.png,0.0,0.0,0.0,-11.9019,-5.67627,-14.2822,
2020-05-10 21:33:04 +0900,1.5,-0.11845000000000105,-43.02719999999999,0.0,-0.03662999999999972,-0.15508000000000077,41.5888,-1.4383999999999943,0,0,0,0,1,282:FRAME_rest.png,0.0,0.0,0.0,-8.05664,-0.732422,-4.57764,
2020-05-10 21:33:04 +0900,1.6,-0.08631000000000011,-44.142999999999994,0.0,-0.03943999999999992,-0.12575000000000003,41.5888,-2.5541999999999945,0,0,0,0,1,282:FRAME_rest.png,0.0,0.0,0.0,-0.793457,-1.2207,0.915527,
2020-05-10 21:33:04 +0900,1.7000000000000002,-0.06762000000000068,-44.142999999999994,0.0,-0.04504999999999981,-0.11267000000000049,41.5888,-2.5541999999999945,0,0,0,0,1,282:FRAME_rest.png,0.0,0.0,0.0,9.64355,-3.05176,6.7749,
2020-05-10 21:33:04 +0900,1.8,-0.06576000000000093,-44.142999999999994,0.0,-0.053449999999999775,-0.1192100000000007,41.5888,-2.5541999999999945,0,0,0,0,1,282:FRAME_rest.png,0.0,0.0,0.0,-1.09863,2.13623,18.3716,
2020-05-10 21:33:04 +0900,1.9000000000000001,-0.029950000000000365,-44.142999999999994,0.0,-0.03662999999999972,-0.06658000000000008,41.5888,-2.5541999999999945,0,0,0,0,1,282:FRAME_rest.png,0.0,0.0,0.0,4.82178,-7.75146,-20.0806,
2020-05-10 21:33:04 +0900,2.0,-0.032760000000000566,-44.142999999999994,0.0,-0.03381999999999952,-0.06658000000000008,41.5888,-2.5541999999999945,0,0,0,0,1,282:FRAME_rest.png,0.0,0.0,0.0,1.77002,-0.244141,-22.644,
2020-05-10 21:33:05 +0900,2.1,-0.06249000000000038,-43.02719999999999,0.0,-0.053449999999999775,-0.11594000000000015,41.5888,-1.4383999999999943,0,0,0,0,1,282:FRAME_rest.png,0.0,0.0,0.0,-3.41797,-2.56348,-9.33838,
2020-05-10 21:33:05 +0900,2.2,-0.09831000000000056,-43.02719999999999,0.0,-0.07298999999999989,-0.17130000000000045,41.5888,-1.4383999999999943,0,0,0,0,1,282:FRAME_rest.png,0.0,0.0,0.0,2.62451,3.17383,5.00488,
2020-05-10 21:33:05 +0900,2.3000000000000003,-0.13805000000000067,-43.02719999999999,0.0,-0.10078999999999994,-0.2388400000000006,41.5888,-1.4383999999999943,0,0,0,0,1,282:FRAME_rest.png,0.0,0.0,0.0,-2.13623,0.915527,14.5874,
2020-05-10 21:33:05 +0900,2.4000000000000004,-0.13956000000000035,-41.5888,0.0,-0.08969000000000005,-0.2292500000000004,41.5888,0.0,0,0,0,0,1,282:FRAME_rest.png,0.0,0.0,0.0,-0.244141,3.54004,33.6914,
2020-05-10 21:33:05 +0900,2.5,-0.11960000000000104,-41.5888,0.0,-0.0646299999999993,-0.18423000000000034,41.5888,0.0,0,0,0,0,1,282:FRAME_rest.png,0.0,0.0,0.0,-0.183105,5.43213,42.9688,
2020-05-10 21:33:05 +0900,2.6,-0.12606000000000073,-43.02719999999999,0.0,-0.0646299999999993,-0.19069000000000003,41.5888,-1.4383999999999943,0,0,0,0,1,282:FRAME_rest.png,0.0,0.0,0.0,0.366211,7.14111,43.457,
2020-05-10 21:33:05 +0900,2.7,-0.1251900000000008,-43.02719999999999,0.0,-0.05903999999999954,-0.18423000000000034,41.5888,-1.4383999999999943,0,0,0,0,1,282:FRAME_rest.png,0.0,0.0,0.0,-1.28174,3.11279,32.7148,
2020-05-10 21:33:05 +0900,2.8000000000000003,-0.11960000000000104,-44.142999999999994,0.0,-0.0646299999999993,-0.18423000000000034,41.5888,-2.5541999999999945,0,0,0,0,1,282:FRAME_rest.png,0.0,0.0,0.0,-2.38037,1.70898,12.7563,
2020-05-10 21:33:05 +0900,2.9000000000000004,-0.11550000000000082,-44.142999999999994,0.0,-0.05903999999999954,-0.17454000000000036,41.5888,-2.5541999999999945,0,0,0,0,1,282:FRAME_rest.png,0.0,0.0,0.0,-3.05176,-1.46484,-8.11768,
2020-05-10 21:33:05 +0900,3.0,-0.07931000000000044,-44.142999999999994,0.0,-0.03662999999999972,-0.11594000000000015,41.5888,-2.5541999999999945,0,0,0,0,1,282:FRAME_rest.png,0.0,0.0,0.0,-1.15967,-3.72314,-15.3809,
2020-05-10 21:33:06 +0900,3.1,-0.08631000000000011,-44.142999999999994,0.0,-0.03943999999999992,-0.12575000000000003,41.5888,-2.5541999999999945,0,0,0,0,1,282:FRAME_rest.png,0.0,0.0,0.0,0.0,-4.69971,-15.0757,
2020-05-10 21:33:06 +0900,3.2,-0.10812000000000044,-44.142999999999994,0.0,-0.053449999999999775,-0.1615700000000002,41.5888,-2.5541999999999945,0,0,0,0,1,282:FRAME_rest.png,0.0,0.0,0.0,2.38037,-2.74658,-5.5542,
2020-05-10 21:33:06 +0900,3.3000000000000003,-0.1338000000000008,-44.142999999999994,0.0,-0.07298999999999989,-0.2067900000000007,41.5888,-2.5541999999999945,0,0,0,0,1,282:FRAME_rest.png,0.0,0.0,0.0,0.183105,-0.793457,0.488281,
2020-05-10 21:33:06 +0900,3.4000000000000004,-0.16551000000000116,-43.02719999999999,0.0,-0.09246999999999961,-0.25798000000000076,41.5888,-1.4383999999999943,0,0,0,0,1,282:FRAME_rest.png,0.0,0.0,0.0,-3.05176,0.793457,11.4136,
2020-05-10 21:33:06 +0900,3.5,-0.1498500000000007,-43.02719999999999,0.0,-0.07298999999999989,-0.2228400000000006,41.5888,-1.4383999999999943,0,0,0,0,1,282:FRAME_rest.png,0.0,0.0,0.0,-3.54004,2.13623,18.7988,
2020-05-10 21:33:06 +0900,3.6,-0.13937000000000133,-43.02719999999999,0.0,-0.06741999999999937,-0.2067900000000007,41.5888,-1.4383999999999943,0,0,0,0,1,282:FRAME_rest.png,0.0,0.0,0.0,-1.52588,3.11279,21.8506,
2020-05-10 21:33:06 +0900,3.7,-0.14622000000000135,-43.02719999999999,0.0,-0.07020999999999944,-0.2164300000000008,41.5888,-1.4383999999999943,0,0,0,0,1,282:FRAME_rest.png,0.0,0.0,0.0,0.305176,2.80762,18.5547,
2020-05-10 21:33:06 +0900,3.8000000000000003,-0.1434400000000009,-43.02719999999999,0.0,-0.07298999999999989,-0.2164300000000008,41.5888,-1.4383999999999943,0,0,0,0,1,282:FRAME_rest.png,0.0,0.0,0.0,-1.64795,1.89209,12.7563,
2020-05-10 21:33:06 +0900,3.9000000000000004,-0.154300000000001,-44.142999999999994,0.0,-0.08134999999999959,-0.23565000000000058,41.5888,-2.5541999999999945,0,0,0,0,1,282:FRAME_rest.png,0.0,0.0,0.0,-3.2959,-1.95312,-5.24902,
2020-05-10 21:33:06 +0900,4.0,-0.12972000000000072,-44.142999999999994,0.0,-0.06741999999999937,-0.1971400000000001,41.5888,-2.5541999999999945,0,0,0,0,1,282:FRAME_rest.png,0.0,0.0,0.0,-2.2583,-4.45557,-16.6626,
2020-05-10 21:33:07 +0900,4.1000000000000005,-0.1118200000000007,-44.142999999999994,0.0,-0.056239999999999846,-0.16806000000000054,41.5888,-2.5541999999999945,0,0,0,0,1,282:FRAME_rest.png,0.0,0.0,0.0,-2.2583,-4.45557,-16.6626,
2020-05-10 21:33:07 +0900,4.2,-0.1329400000000014,-44.142999999999994,0.0,-0.06741999999999937,-0.20036000000000076,41.5888,-2.5541999999999945,0,0,0,0,1,282:FRAME_rest.png,0.0,0.0,0.0,2.0752,-1.95312,-11.3525,
2020-05-10 21:33:07 +0900,4.3,-0.14748000000000072,-44.142999999999994,0.0,-0.07857000000000003,-0.22605000000000075,41.5888,-2.5541999999999945,0,0,0,0,1,282:FRAME_rest.png,0.0,0.0,0.0,3.78418,-1.40381,-8.05664,
2020-05-10 21:33:07 +0900,4.4,-0.1726700000000001,-43.02719999999999,0.0,-0.09802,-0.2706900000000001,41.5888,-1.4383999999999943,0,0,0,0,1,282:FRAME_rest.png,0.0,0.0,0.0,1.52588,-0.427246,-0.915527,
2020-05-10 21:33:07 +0900,4.5,-0.17863000000000095,-44.142999999999994,0.0,-0.09523999999999955,-0.2738700000000005,41.5888,-2.5541999999999945,0,0,0,0,1,282:FRAME_rest.png,0.0,0.0,0.0,-0.305176,0.610352,3.60107,
2020-05-10 21:33:07 +0900,4.6000000000000005,-0.14622000000000135,-43.02719999999999,0.0,-0.07020999999999944,-0.2164300000000008,41.5888,-1.4383999999999943,0,0,0,0,1,282:FRAME_rest.png,0.0,0.0,0.0,-0.305176,0.427246,12.4512,
2020-05-10 21:33:07 +0900,4.7,-0.14622000000000135,-41.5888,0.0,-0.07020999999999944,-0.2164300000000008,41.5888,0.0,0,0,0,0,1,282:FRAME_rest.png,0.0,0.0,0.0,1.83105,1.15967,14.0991,
2020-05-10 21:33:07 +0900,4.800000000000001,-0.1434400000000009,-43.02719999999999,0.0,-0.07298999999999989,-0.2164300000000008,41.5888,-1.4383999999999943,0,0,0,0,1,282:FRAME_rest.png,0.0,0.0,0.0,0.366211,1.77002,11.7798,
2020-05-10 21:33:07 +0900,4.9,-0.1479000000000008,-43.02719999999999,0.0,-0.08134999999999959,-0.2292500000000004,41.5888,-1.4383999999999943,0,0,0,0,1,282:FRAME_rest.png,0.0,0.0,0.0,0.244141,1.70898,8.30078,
2020-05-10 21:33:07 +0900,5.0,-0.151930000000001,-44.142999999999994,0.0,-0.0869099999999996,-0.2388400000000006,41.5888,-2.5541999999999945,0,0,0,0,1,282:FRAME_rest.png,0.0,0.0,0.0,0.427246,-2.13623,-8.48389,
2020-05-10 21:33:08 +0900,5.1000000000000005,-0.12004000000000126,-45.05459999999999,0.0,-0.06741999999999937,-0.18746000000000063,41.5888,-3.4657999999999944,0,0,0,0,1,282:FRAME_rest.png,0.0,0.0,0.0,-0.610352,-5.00488,-14.5264,
2020-05-10 21:33:08 +0900,5.2,-0.12048000000000059,-44.142999999999994,0.0,-0.07020999999999944,-0.19069000000000003,41.5888,-2.5541999999999945,0,0,0,0,1,282:FRAME_rest.png,0.0,0.0,0.0,0.366211,-3.54004,-12.4512,
2020-05-10 21:33:08 +0900,5.300000000000001,-0.13829000000000047,-44.142999999999994,0.0,-0.08134999999999959,-0.21964000000000006,41.5888,-2.5541999999999945,0,0,0,0,1,282:FRAME_rest.png,0.0,0.0,0.0,0.305176,-1.58691,-6.16455,
2020-05-10 21:33:08 +0900,5.4,-0.1563700000000008,-45.05459999999999,0.0,-0.09523999999999955,-0.25161000000000033,41.5888,-3.4657999999999944,0,0,0,0,1,282:FRAME_rest.png,0.0,0.0,0.0,-1.15967,0.244141,-1.28174,
2020-05-10 21:33:08 +0900,5.5,-0.18060000000000098,-44.142999999999994,0.0,-0.10909999999999975,-0.28970000000000073,41.5888,-2.5541999999999945,0,0,0,0,1,282:FRAME_rest.png,0.0,0.0,0.0,-1.0376,1.28174,6.16455,
2020-05-10 21:33:08 +0900,5.6000000000000005,-0.15873000000000026,-43.02719999999999,0.0,-0.08969000000000005,-0.2484200000000003,41.5888,-1.4383999999999943,0,0,0,0,1,282:FRAME_rest.png,0.0,0.0,0.0,1.28174,1.28174,14.0381,
2020-05-10 21:33:08 +0900,5.7,-0.12048000000000059,-43.02719999999999,0.0,-0.07020999999999944,-0.19069000000000003,41.5888,-1.4383999999999943,0,0,0,0,1,282:FRAME_rest.png,0.0,0.0,0.0,3.17383,2.13623,16.0522,
2020-05-10 21:33:08 +0900,5.800000000000001,-0.11725000000000119,-43.02719999999999,0.0,-0.07020999999999944,-0.18746000000000063,41.5888,-1.4383999999999943,0,0,0,0,1,282:FRAME_rest.png,0.0,0.0,0.0,0.244141,0.793457,10.498,
2020-05-10 21:33:08 +0900,5.9,-0.11725000000000119,-43.02719999999999,0.0,-0.07020999999999944,-0.18746000000000063,41.5888,-1.4383999999999943,0,0,0,0,1,282:FRAME_rest.png,0.0,0.0,0.0,0.0610352,-0.732422,-2.62451,
2020-05-10 21:33:08 +0900,6.0,-0.13144000000000045,-36.0958,0.0,-0.07857000000000003,-0.21001000000000047,26.3662,-9.729599999999998,0,0,0,0,1,282:FRAME_rest.png,0.0,0.0,0.0,0.0610352,-4.76074,-19.4092,
2020-05-10 21:33:09 +0900,6.1000000000000005,-0.13551000000000002,-43.02719999999999,0.0,-0.08413000000000004,-0.21964000000000006,41.5888,-1.4383999999999943,0,0,0,0,1,282:FRAME_rest.png,0.0,0.0,0.0,-2.56348,-6.40869,-21.1792,
2020-05-10 21:33:09 +0900,6.2,-0.10991000000000106,-44.142999999999994,0.0,-0.0646299999999993,-0.17454000000000036,41.5888,-2.5541999999999945,0,0,0,0,1,282:FRAME_rest.png,0.0,0.0,0.0,-0.610352,-3.05176,-12.3901,
2020-05-10 21:33:09 +0900,6.300000000000001,-0.12004000000000126,-44.142999999999994,0.0,-0.06741999999999937,-0.18746000000000063,41.5888,-2.5541999999999945,0,0,0,0,1,282:FRAME_rest.png,0.0,0.0,0.0,0.549316,-1.77002,-1.83105,
2020-05-10 21:33:09 +0900,6.4,-0.13423000000000052,-44.142999999999994,0.0,-0.07577999999999996,-0.21001000000000047,41.5888,-2.5541999999999945,0,0,0,0,1,282:FRAME_rest.png,0.0,0.0,0.0,-1.15967,-0.610352,2.2583,
2020-05-10 21:33:09 +0900,6.5,-0.15110000000000046,-44.142999999999994,0.0,-0.08134999999999959,-0.23245000000000005,41.5888,-2.5541999999999945,0,0,0,0,1,282:FRAME_rest.png,0.0,0.0,0.0,-1.83105,1.34277,11.5356,
2020-05-10 21:33:09 +0900,6.6000000000000005,-0.16470000000000073,-44.142999999999994,0.0,-0.0869099999999996,-0.25161000000000033,41.5888,-2.5541999999999945,0,0,0,0,1,282:FRAME_rest.png,0.0,0.0,0.0,-0.183105,0.854492,18.7378,
2020-05-10 21:33:09 +0900,6.7,-0.12563000000000102,-44.142999999999994,0.0,-0.06182999999999961,-0.18746000000000063,41.5888,-2.5541999999999945,0,0,0,0,1,282:FRAME_rest.png,0.0,0.0,0.0,1.52588,0.610352,15.1367,
2020-05-10 21:33:09 +0900,6.800000000000001,-0.09520000000000106,-43.02719999999999,0.0,-0.03381999999999952,-0.12902000000000058,41.5888,-1.4383999999999943,0,0,0,0,1,282:FRAME_rest.png,0.0,0.0,0.0,0.183105,0.610352,9.82666,
2020-05-10 21:33:09 +0900,6.9,-0.09193000000000051,-43.02719999999999,0.0,-0.03381999999999952,-0.12575000000000003,41.5888,-1.4383999999999943,0,0,0,0,1,282:FRAME_rest.png,0.0,0.0,0.0,-2.0752,-1.83105,-4.5166,
2020-05-10 21:33:09 +0900,7.0,-0.09520000000000106,-43.02719999999999,0.0,-0.03381999999999952,-0.12902000000000058,41.5888,-1.4383999999999943,0,0,0,0,1,282:FRAME_rest.png,0.0,0.0,0.0,-2.38037,-6.10352,-25.2075,
2020-05-10 21:33:10 +0900,7.1000000000000005,-0.10723000000000127,-43.02719999999999,0.0,-0.047849999999999504,-0.15508000000000077,41.5888,-1.4383999999999943,0,0,0,0,1,282:FRAME_rest.png,0.0,0.0,0.0,-0.915527,-2.56348,-17.2119,
2020-05-10 21:33:10 +0900,7.2,-0.11461000000000077,-43.02719999999999,0.0,-0.053449999999999775,-0.16806000000000054,41.5888,-1.4383999999999943,0,0,0,0,1,282:FRAME_rest.png,0.0,0.0,0.0,-1.95312,-0.610352,-10.0708,
2020-05-10 21:33:10 +0900,7.300000000000001,-0.09474000000000071,-44.142999999999994,0.0,-0.031009999999999316,-0.12575000000000003,41.5888,-2.5541999999999945,0,0,0,0,1,282:FRAME_rest.png,0.0,0.0,0.0,-2.0752,0.427246,-2.0752,
2020-05-10 21:33:10 +0900,7.4,-0.10454000000000097,-44.142999999999994,0.0,-0.031009999999999316,-0.13555000000000028,41.5888,-2.5541999999999945,0,0,0,0,1,282:FRAME_rest.png,0.0,0.0,0.0,-2.0752,0.12207,6.04248,
2020-05-10 21:33:10 +0900,7.5,-0.11150000000000126,-44.142999999999994,0.0,-0.03381999999999952,-0.14532000000000078,41.5888,-2.5541999999999945,0,0,0,0,1,282:FRAME_rest.png,0.0,0.0,0.0,0.305176,0.793457,10.1318,
2020-05-10 21:33:10 +0900,7.6000000000000005,-0.11195000000000022,-45.05459999999999,0.0,-0.03662999999999972,-0.14857999999999993,41.5888,-3.4657999999999944,0,0,0,0,1,282:FRAME_rest.png,0.0,0.0,0.0,0.0610352,0.915527,11.1694,
2020-05-10 21:33:10 +0900,7.7,-0.11328000000000049,-44.142999999999994,0.0,-0.04504999999999981,-0.1583300000000003,41.5888,-2.5541999999999945,0,0,0,0,1,282:FRAME_rest.png,0.0,0.0,0.0,1.83105,-0.427246,6.22559,
2020-05-10 21:33:10 +0900,7.800000000000001,-0.07650000000000023,-43.02719999999999,0.0,-0.019759999999999778,-0.09626000000000001,41.5888,-1.4383999999999943,0,0,0,0,1,282:FRAME_rest.png,0.0,0.0,0.0,2.44141,-1.15967,-1.58691,
2020-05-10 21:33:10 +0900,7.9,-0.05051000000000094,-43.02719999999999,0.0,-0.002829999999999444,-0.05334000000000039,41.5888,-1.4383999999999943,0,0,0,0,1,282:FRAME_rest.png,0.0,0.0,0.0,0.305176,-4.02832,-12.8784,
2020-05-10 21:33:10 +0900,8.0,-0.06237000000000048,-41.5888,0.0,-0.014120000000000132,-0.07649000000000061,41.5888,0.0,0,0,0,0,1,282:FRAME_rest.png,0.0,0.0,0.0,1.77002,-6.04248,-21.3623,
2020-05-10 21:33:11 +0900,8.1,-0.078380000000001,-41.5888,0.0,-0.031009999999999316,-0.10939000000000032,41.5888,0.0,0,0,0,0,1,282:FRAME_rest.png,0.0,0.0,0.0,3.2959,-4.69971,-13.5498,
2020-05-10 21:33:11 +0900,8.200000000000001,-0.10858000000000079,-41.5888,0.0,-0.056239999999999846,-0.16482000000000063,41.5888,0.0,0,0,0,0,1,282:FRAME_rest.png,0.0,0.0,0.0,1.34277,-2.0752,-5.85938,
2020-05-10 21:33:11 +0900,8.3,-0.11960000000000104,-43.02719999999999,0.0,-0.0646299999999993,-0.18423000000000034,41.5888,-1.4383999999999943,0,0,0,0,1,282:FRAME_rest.png,0.0,0.0,0.0,-0.610352,0.549316,2.19727,
2020-05-10 21:33:11 +0900,8.4,-0.08912000000000031,-44.142999999999994,0.0,-0.03662999999999972,-0.12575000000000003,41.5888,-2.5541999999999945,0,0,0,0,1,282:FRAME_rest.png,0.0,0.0,0.0,-0.488281,2.0752,10.0098,
2020-05-10 21:33:11 +0900,8.5,-0.08493000000000084,-44.142999999999994,99.1,-0.031009999999999316,-0.11594000000000015,41.5888,-2.5541999999999945,0,0,0,0,1,282:FRAME_rest.png,0.0,0.0,0.0,0.427246,3.479,13.1226,
2020-05-10 21:33:11 +0900,8.6,-0.08166000000000118,-45.05459999999999,99.6,-0.031009999999999316,-0.11267000000000049,41.5888,-3.4657999999999944,0,0,0,0,1,282:FRAME_rest.png,0.0,0.0,0.0,-0.0610352,0.915527,6.71387,
2020-05-10 21:33:11 +0900,8.700000000000001,-0.078380000000001,-44.142999999999994,100.2,-0.031009999999999316,-0.10939000000000032,41.5888,-2.5541999999999945,0,0,0,0,1,282:FRAME_rest.png,0.0,0.0,0.0,-0.854492,-1.2207,-3.66211,
2020-05-10 21:33:11 +0900,8.8,-0.08351000000000042,-44.142999999999994,101.0,-0.04223999999999961,-0.12575000000000003,41.5888,-2.5541999999999945,0,0,0,0,1,282:FRAME_rest.png,0.0,0.0,0.0,-0.854492,-1.2207,-3.66211,
2020-05-10 21:33:11 +0900,8.9,-0.06429000000000062,-44.142999999999994,101.4,-0.0253899999999998,-0.08968000000000043,41.5888,-2.5541999999999945,0,0,0,0,1,282:FRAME_rest.png,0.0,0.0,0.0,-3.23486,-1.52588,-13.0005,
2020-05-10 21:33:11 +0900,9.0,-0.053920000000000634,-43.02719999999999,101.7,-0.02256999999999998,-0.07649000000000061,41.5888,-1.4383999999999943,0,0,0,0,1,282:FRAME_rest.png,0.0,0.0,0.0,0.12207,-2.68555,-17.0288,
2020-05-10 21:33:12 +0900,9.1,-0.07604000000000077,-41.5888,102.1,-0.03662999999999972,-0.11267000000000049,41.5888,0.0,0,0,0,0,1,282:FRAME_rest.png,0.0,0.0,0.0,1.34277,-4.02832,-13.1836,
2020-05-10 21:33:12 +0900,9.200000000000001,-0.0946700000000007,-41.5888,102.0,-0.050650000000000084,-0.14532000000000078,41.5888,0.0,0,0,0,0,1,282:FRAME_rest.png,0.0,0.0,0.0,0.488281,-2.19727,-8.91113,
2020-05-10 21:33:12 +0900,9.3,-0.12004000000000126,-43.02719999999999,102.0,-0.06741999999999937,-0.18746000000000063,41.5888,-1.4383999999999943,0,0,0,0,1,282:FRAME_rest.png,0.0,0.0,0.0,-1.15967,0.366211,0.854492,
2020-05-10 21:33:12 +0900,9.4,-0.11271000000000075,-44.142999999999994,102.2,-0.06182999999999961,-0.17454000000000036,41.5888,-2.5541999999999945,0,0,0,0,1,282:FRAME_rest.png,0.0,0.0,0.0,-2.68555,1.95312,11.4136,
2020-05-10 21:33:12 +0900,9.5,-0.07134000000000018,-44.142999999999994,102.3,-0.028200000000000003,-0.09954000000000018,41.5888,-2.5541999999999945,0,0,0,0,1,282:FRAME_rest.png,0.0,0.0,0.0,0.427246,3.41797,14.6484,
2020-05-10 21:33:12 +0900,9.600000000000001,-0.05722000000000005,-44.142999999999994,102.2,-0.02256999999999998,-0.07979000000000003,41.5888,-2.5541999999999945,0,0,0,0,1,282:FRAME_rest.png,0.0,0.0,0.0,-1.28174,1.83105,13.2446,
2020-05-10 21:33:12 +0900,9.700000000000001,-0.05722000000000005,-44.142999999999994,102.3,-0.02256999999999998,-0.07979000000000003,41.5888,-2.5541999999999945,0,0,0,0,1,282:FRAME_rest.png,0.0,0.0,0.0,2.31934,0.427246,7.08008,
2020-05-10 21:33:12 +0900,9.8,-0.062440000000000495,-44.142999999999994,102.3,-0.03381999999999952,-0.09626000000000001,41.5888,-2.5541999999999945,0,0,0,0,1,282:FRAME_rest.png,0.0,0.0,0.0,1.28174,-0.549316,-2.62451,
2020-05-10 21:33:12 +0900,9.9,-0.08164000000000016,-45.05459999999999,102.3,-0.050650000000000084,-0.13229000000000024,41.5888,-3.4657999999999944,0,0,0,0,1,282:FRAME_rest.png,0.0,0.0,0.0,-3.72314,-1.95312,-13.0615,
2020-05-10 21:33:12 +0900,10.0,-0.0591500000000007,-44.142999999999994,102.2,-0.03381999999999952,-0.09297000000000022,41.5888,-2.5541999999999945,0,0,0,0,1,282:FRAME_rest.png,0.0,0.0,0.0,0.0,-3.17383,-13.7329,
2020-05-10 21:33:13 +0900,10.100000000000001,-0.05770000000000053,-43.02719999999999,102.4,-0.0253899999999998,-0.08309000000000033,41.5888,-1.4383999999999943,0,0,0,0,1,282:FRAME_rest.png,0.0,0.0,0.0,0.0610352,-3.05176,-8.36182,
2020-05-10 21:33:13 +0900,10.200000000000001,-0.07182000000000066,-43.02719999999999,102.9,-0.031009999999999316,-0.10282999999999998,41.5888,-1.4383999999999943,0,0,0,0,1,282:FRAME_rest.png,0.0,0.0,0.0,0.366211,-0.244141,2.01416,
2020-05-10 21:33:13 +0900,10.3,-0.07885000000000097,-41.5888,103.5,-0.03381999999999952,-0.11267000000000049,41.5888,0.0,0,0,0,0,1,282:FRAME_rest.png,0.0,0.0,0.0,-1.58691,0.427246,10.7422,
2020-05-10 21:33:13 +0900,10.4,-0.08631000000000011,-41.5888,103.4,-0.03943999999999992,-0.12575000000000003,41.5888,0.0,0,0,0,0,1,282:FRAME_rest.png,0.0,0.0,0.0,-0.305176,1.15967,13.855,
2020-05-10 21:33:13 +0900,10.5,-0.06477000000000022,-43.02719999999999,103.7,-0.028200000000000003,-0.09297000000000022,41.5888,-1.4383999999999943,0,0,0,0,1,282:FRAME_rest.png,0.0,0.0,0.0,-0.427246,0.854492,14.0991,
2020-05-10 21:33:13 +0900,10.600000000000001,-0.0190500000000009,-43.02719999999999,103.9,0.0056600000000006645,-0.013390000000000235,41.5888,-1.4383999999999943,0,0,0,0,1,282:FRAME_rest.png,0.0,0.0,0.0,-0.12207,1.15967,7.99561,
2020-05-10 21:33:13 +0900,10.700000000000001,-0.0190500000000009,-44.142999999999994,104.2,0.0056600000000006645,-0.013390000000000235,41.5888,-2.5541999999999945,0,0,0,0,1,282:FRAME_rest.png,0.0,0.0,0.0,-1.58691,-2.38037,-2.2583,
2020-05-10 21:33:13 +0900,10.8,-0.02724000000000082,-44.142999999999994,104.4,-0.002829999999999444,-0.030070000000000263,41.5888,-2.5541999999999945,0,0,0,0,1,282:FRAME_rest.png,0.0,0.0,0.0,-1.70898,-3.11279,-11.1084,
2020-05-10 21:33:13 +0900,10.9,-0.046330000000000204,-44.142999999999994,104.2,-0.016939999999999955,-0.06327000000000016,41.5888,-2.5541999999999945,0,0,0,0,1,282:FRAME_rest.png,0.0,0.0,0.0,-1.52588,-3.2959,-11.4746,
2020-05-10 21:33:13 +0900,11.0,-0.08305000000000007,-44.142999999999994,103.9,-0.03943999999999992,-0.12248999999999999,41.5888,-2.5541999999999945,0,0,0,0,1,282:FRAME_rest.png,0.0,0.0,0.0,-0.549316,-1.58691,-2.62451,
2020-05-10 21:33:14 +0900,11.100000000000001,-0.07932000000000006,-44.142999999999994,103.8,-0.016939999999999955,-0.09626000000000001,41.5888,-2.5541999999999945,0,0,0,0,1,282:FRAME_rest.png,0.0,0.0,0.0,0.305176,-0.244141,0.427246,
2020-05-10 21:33:14 +0900,11.200000000000001,-0.05665000000000031,-43.02719999999999,103.9,0.0,-0.05665000000000031,41.5888,-1.4383999999999943,0,0,0,0,1,282:FRAME_rest.png,0.0,0.0,0.0,-0.305176,0.976562,8.97217,
2020-05-10 21:33:14 +0900,11.3,-0.05948000000000064,-43.02719999999999,103.8,0.0028300000000003322,-0.05665000000000031,41.5888,-1.4383999999999943,0,0,0,0,1,282:FRAME_rest.png,0.0,0.0,0.0,2.0752,1.83105,16.4185,
2020-05-10 21:33:14 +0900,11.4,-0.05236000000000107,-43.02719999999999,103.7,0.0056600000000006645,-0.04670000000000041,41.5888,-1.4383999999999943,0,0,0,0,1,282:FRAME_rest.png,0.0,0.0,0.0,2.80762,2.99072,19.5923,
2020-05-10 21:33:14 +0900,11.5,-0.05051000000000094,-43.02719999999999,103.6,-0.002829999999999444,-0.05334000000000039,41.5888,-1.4383999999999943,0,0,0,0,1,282:FRAME_rest.png,0.0,0.0,0.0,1.34277,2.01416,12.3291,
2020-05-10 21:33:14 +0900,11.600000000000001,-0.04719000000000051,-43.02719999999999,103.4,-0.002829999999999444,-0.05001999999999995,41.5888,-1.4383999999999943,0,0,0,0,1,282:FRAME_rest.png,0.0,0.0,0.0,1.15967,-1.34277,-1.46484,
2020-05-10 21:33:14 +0900,11.700000000000001,-0.009260000000000268,-43.02719999999999,103.3,0.022680000000000256,0.013419999999999987,41.5888,-1.4383999999999943,0,0,0,0,1,282:FRAME_rest.png,0.0,0.0,0.0,-0.732422,-2.56348,-12.207,
2020-05-10 21:33:14 +0900,11.8,-0.00978000000000101,-43.02719999999999,103.1,0.019840000000000302,0.010059999999999292,41.5888,-1.4383999999999943,0,0,0,0,1,282:FRAME_rest.png,0.0,0.0,0.0,-2.0752,-2.62451,-11.6577,
2020-05-10 21:33:14 +0900,11.9,-0.03190000000000026,-44.142999999999994,103.5,0.008490000000000109,-0.023410000000000153,41.5888,-2.5541999999999945,0,0,0,0,1,282:FRAME_rest.png,0.0,0.0,0.0,1.89209,-2.68555,-10.1929,
2020-05-10 21:33:14 +0900,12.0,-0.051000000000000156,-45.05459999999999,103.3,-0.005650000000000155,-0.05665000000000031,41.5888,-3.4657999999999944,0,0,0,0,1,282:FRAME_rest.png,0.0,0.0,0.0,0.915527,-1.70898,-5.5542,
2020-05-10 21:33:15 +0900,12.100000000000001,-0.07369000000000003,-44.142999999999994,103.0,-0.02256999999999998,-0.09626000000000001,41.5888,-2.5541999999999945,0,0,0,0,1,282:FRAME_rest.png,0.0,0.0,0.0,0.793457,-1.15967,6.40869,
2020-05-10 21:33:15 +0900,12.200000000000001,-0.05713000000000079,-44.142999999999994,103.0,-0.002829999999999444,-0.059960000000000235,41.5888,-2.5541999999999945,0,0,0,0,1,282:FRAME_rest.png,0.0,0.0,0.0,0.854492,1.09863,10.498,
2020-05-10 21:33:15 +0900,12.3,-0.018820000000000725,-43.02719999999999,102.8,0.02552000000000021,0.006699999999999484,41.5888,-1.4383999999999943,0,0,0,0,1,282:FRAME_rest.png,0.0,0.0,0.0,-0.732422,2.2583,13.7939,
2020-05-10 21:33:15 +0900,12.4,-0.009260000000000268,-43.02719999999999,102.8,0.022680000000000256,0.013419999999999987,41.5888,-1.4383999999999943,0,0,0,0,1,282:FRAME_rest.png,0.0,0.0,0.0,0.305176,1.52588,8.30078,
2020-05-10 21:33:15 +0900,12.5,-0.0030600000000005068,-41.5888,102.4,0.019840000000000302,0.016779999999999795,41.5888,0.0,0,0,0,0,1,282:FRAME_rest.png,0.0,0.0,0.0,0.488281,-1.58691,0.366211,
2020-05-10 21:33:15 +0900,12.600000000000001,-0.011840000000000295,-41.5888,102.5,0.008490000000000109,-0.003350000000000186,41.5888,0.0,0,0,0,0,1,282:FRAME_rest.png,0.0,0.0,0.0,1.28174,-4.63867,-7.20215,
2020-05-10 21:33:15 +0900,12.700000000000001,-0.028760000000001007,-41.5888,102.2,-0.011299999999999422,-0.04006000000000043,41.5888,0.0,0,0,0,0,1,282:FRAME_rest.png,0.0,0.0,0.0,0.915527,-4.45557,-11.4136,
2020-05-10 21:33:15 +0900,12.8,-0.011840000000000295,-43.02719999999999,102.1,0.008490000000000109,-0.003350000000000186,41.5888,-1.4383999999999943,0,0,0,0,1,282:FRAME_rest.png,0.0,0.0,0.0,-1.34277,-3.23486,-11.3525,
2020-05-10 21:33:15 +0900,12.9,-0.004100000000001103,-41.5888,102.2,0.014160000000000394,0.010059999999999292,41.5888,0.0,0,0,0,0,1,282:FRAME_rest.png,0.0,0.0,0.0,-0.305176,-0.915527,-2.80762,
2020-05-10 21:33:15 +0900,13.0,-0.02522000000000002,-44.142999999999994,102.2,0.008490000000000109,-0.01672999999999991,41.5888,-2.5541999999999945,0,0,0,0,1,282:FRAME_rest.png,0.0,0.0,0.0,-0.793457,0.244141,4.69971,
2020-05-10 21:33:16 +0900,13.100000000000001,-0.029070000000000817,-43.02719999999999,102.2,0.0056600000000006645,-0.023410000000000153,41.5888,-1.4383999999999943,0,0,0,0,1,282:FRAME_rest.png,0.0,0.0,0.0,-0.0610352,1.70898,10.2539,
2020-05-10 21:33:16 +0900,13.200000000000001,-0.037230000000000985,-44.142999999999994,102.1,-0.002829999999999444,-0.04006000000000043,41.5888,-2.5541999999999945,0,0,0,0,1,282:FRAME_rest.png,0.0,0.0,0.0,-0.366211,1.52588,10.6201,
2020-05-10 21:33:16 +0900,13.3,-0.030070000000000263,-44.142999999999994,102.0,0.0,-0.030070000000000263,41.5888,-2.5541999999999945,0,0,0,0,1,282:FRAME_rest.png,0.0,0.0,0.0,-0.366211,1.52588,10.6201,
2020-05-10 21:33:16 +0900,13.4,0.019859999999998657,-43.02719999999999,102.2,0.03405000000000058,0.053909999999999236,41.5888,-1.4383999999999943,0,0,0,0,1,282:FRAME_rest.png,0.0,0.0,0.0,0.305176,1.58691,6.53076,
2020-05-10 21:33:16 +0900,13.5,0.030029999999999113,-43.02719999999999,102.0,0.03405000000000058,0.06407999999999969,41.5888,-1.4383999999999943,0,0,0,0,1,282:FRAME_rest.png,0.0,0.0,0.0,-3.479,-1.77002,-6.10352,
2020-05-10 21:33:16 +0900,13.600000000000001,0.01822999999999908,-43.02719999999999,102.0,0.02552000000000021,0.04374999999999929,41.5888,-1.4383999999999943,0,0,0,0,1,282:FRAME_rest.png,0.0,0.0,0.0,-1.09863,-3.54004,-9.94873,
2020-05-10 21:33:16 +0900,13.700000000000001,0.0020999999999995467,-41.5888,102.0,0.01132000000000044,0.013419999999999987,41.5888,0.0,0,0,0,0,1,282:FRAME_rest.png,0.0,0.0,0.0,0.488281,-2.86865,-12.0239,
2020-05-10 21:33:16 +0900,13.8,-0.03208000000000055,-43.02719999999999,101.8,-0.011299999999999422,-0.043379999999999974,41.5888,-1.4383999999999943,0,0,0,0,1,282:FRAME_rest.png,0.0,0.0,0.0,-1.83105,-2.19727,-10.6812,
2020-05-10 21:33:16 +0900,13.9,-0.03208000000000055,-43.02719999999999,102.0,-0.011299999999999422,-0.043379999999999974,41.5888,-1.4383999999999943,0,0,0,0,1,282:FRAME_rest.png,0.0,0.0,0.0,-0.610352,0.0610352,-3.60107,
2020-05-10 21:33:16 +0900,14.0,-0.0002200000000005531,-43.02719999999999,102.5,0.017000000000000348,0.016779999999999795,41.5888,-1.4383999999999943,0,0,0,0,1,282:FRAME_rest.png,0.0,0.0,0.0,-0.854492,0.793457,4.63867,
2020-05-10 21:33:17 +0900,14.100000000000001,0.005979999999999208,-44.142999999999994,102.9,0.014160000000000394,0.020139999999999603,41.5888,-2.5541999999999945,0,0,0,0,1,282:FRAME_rest.png,0.0,0.0,0.0,0.671387,1.0376,10.8643,
2020-05-10 21:33:17 +0900,14.200000000000001,0.012719999999998954,-44.142999999999994,102.8,0.014160000000000394,0.02687999999999935,41.5888,-2.5541999999999945,0,0,0,0,1,282:FRAME_rest.png,0.0,0.0,0.0,1.83105,2.68555,13.1226,
2020-05-10 21:33:17 +0900,14.3,0.01838999999999924,-44.142999999999994,102.8,0.008490000000000109,0.02687999999999935,41.5888,-2.5541999999999945,0,0,0,0,1,282:FRAME_rest.png,0.0,0.0,0.0,0.366211,3.05176,10.437,
2020-05-10 21:33:17 +0900,14.4,0.0022999999999999687,-45.05459999999999,102.8,-0.005650000000000155,-0.003350000000000186,41.5888,-3.4657999999999944,0,0,0,0,1,282:FRAME_rest.png,0.0,0.0,0.0,0.183105,0.305176,0.0,
2020-05-10 21:33:17 +0900,14.5,0.017849999999999255,-44.142999999999994,102.9,0.0056600000000006645,0.02350999999999992,41.5888,-2.5541999999999945,0,0,0,0,1,282:FRAME_rest.png,0.0,0.0,0.0,-0.427246,-2.86865,-12.146,
2020-05-10 21:33:17 +0900,14.600000000000001,0.03351999999999933,-44.142999999999994,103.2,0.017000000000000348,0.050519999999999676,41.5888,-2.5541999999999945,0,0,0,0,1,282:FRAME_rest.png,0.0,0.0,0.0,-1.0376,-4.39453,-16.4185,
2020-05-10 21:33:17 +0900,14.700000000000001,0.007759999999999323,-43.02719999999999,103.4,0.0056600000000006645,0.013419999999999987,41.5888,-1.4383999999999943,0,0,0,0,1,282:FRAME_rest.png,0.0,0.0,0.0,-0.549316,-2.50244,-11.6577,
2020-05-10 21:33:17 +0900,14.8,-0.010560000000000791,-41.5888,103.6,-0.002829999999999444,-0.013390000000000235,41.5888,0.0,0,0,0,0,1,282:FRAME_rest.png,0.0,0.0,0.0,-1.2207,-0.793457,-2.50244,
2020-05-10 21:33:17 +0900,14.9,-0.02925999999999984,-41.5888,103.4,-0.014120000000000132,-0.043379999999999974,41.5888,0.0,0,0,0,0,1,282:FRAME_rest.png,0.0,0.0,0.0,0.0610352,0.488281,6.16455,
2020-05-10 21:33:17 +0900,15.0,-0.037390000000000256,-41.5888,103.6,-0.02256999999999998,-0.059960000000000235,41.5888,0.0,0,0,0,0,1,283:FRAME_グー.png,0.0,0.0,0.0,0.427246,0.0,12.2681,
2020-05-10 21:33:18 +0900,15.100000000000001,0.008289999999999687,-43.02719999999999,104.0,0.008490000000000109,0.016779999999999795,41.5888,-1.4383999999999943,0,0,0,0,1,283:FRAME_グー.png,0.0,0.0,0.0,1.95312,1.83105,12.6343,
2020-05-10 21:33:18 +0900,15.200000000000001,0.03460999999999981,-44.142999999999994,104.0,0.022680000000000256,0.05729000000000006,41.5888,-2.5541999999999945,0,0,0,0,1,283:FRAME_グー.png,0.0,0.0,0.0,0.12207,0.549316,11.5356,
2020-05-10 21:33:18 +0900,15.3,0.02674999999999894,-44.142999999999994,103.9,0.017000000000000348,0.04374999999999929,41.5888,-2.5541999999999945,0,0,0,0,1,283:FRAME_グー.png,0.0,0.0,0.0,1.28174,-0.305176,1.15967,
2020-05-10 21:33:18 +0900,15.4,0.012189999999999479,-44.142999999999994,104.0,0.01132000000000044,0.02350999999999992,41.5888,-2.5541999999999945,0,0,0,0,1,283:FRAME_グー.png,0.0,0.0,0.0,-1.95312,-2.31934,-10.376,
2020-05-10 21:33:18 +0900,15.5,-0.014420000000000321,-44.142999999999994,104.2,-0.005650000000000155,-0.020070000000000476,41.5888,-2.5541999999999945,0,0,0,0,1,283:FRAME_グー.png,0.0,0.0,0.0,-2.44141,-2.2583,-15.3198,
2020-05-10 21:33:18 +0900,15.600000000000001,-0.03308,-44.142999999999994,103.9,-0.016939999999999955,-0.05001999999999995,41.5888,-2.5541999999999945,0,0,0,0,1,283:FRAME_グー.png,0.0,0.0,0.0,-1.2207,-1.40381,-9.27734,
2020-05-10 21:33:18 +0900,15.700000000000001,-0.008490000000000109,-43.02719999999999,104.3,0.008490000000000109,0.0,41.5888,-1.4383999999999943,0,0,0,0,1,283:FRAME_グー.png,0.0,0.0,0.0,-0.366211,-0.671387,-2.0752,
2020-05-10 21:33:18 +0900,15.8,-0.00746000000000091,-43.02719999999999,104.6,0.014160000000000394,0.006699999999999484,41.5888,-1.4383999999999943,0,0,0,0,1,283:FRAME_グー.png,0.0,0.0,0.0,0.183105,0.0610352,8.17871,
2020-05-10 21:33:18 +0900,15.9,-0.007970000000001143,-43.02719999999999,104.5,0.01132000000000044,0.003349999999999298,41.5888,-1.4383999999999943,0,0,0,0,1,283:FRAME_グー.png,0.0,0.0,0.0,0.854492,1.15967,12.0239,
2020-05-10 21:33:18 +0900,16.0,-0.004620000000000957,-43.02719999999999,104.6,0.01132000000000044,0.006699999999999484,41.5888,-1.4383999999999943,0,0,0,0,1,283:FRAME_グー.png,0.0,0.0,0.0,1.64795,3.17383,15.3809,
2020-05-10 21:33:19 +0900,16.1,-0.007220000000001114,-41.5888,104.6,-0.002829999999999444,-0.010050000000000558,41.5888,0.0,0,0,0,0,1,283:FRAME_グー.png,0.0,0.0,0.0,-0.305176,2.19727,9.8877,
2020-05-10 21:33:19 +0900,16.2,-0.007220000000001114,-43.02719999999999,104.7,-0.002829999999999444,-0.010050000000000558,41.5888,-1.4383999999999943,0,0,0,0,1,283:FRAME_グー.png,0.0,0.0,0.0,0.671387,-0.488281,-2.19727,
2020-05-10 21:33:19 +0900,16.3,0.02052999999999905,-43.02719999999999,104.9,0.019840000000000302,0.04036999999999935,41.5888,-1.4383999999999943,0,0,0,0,1,283:FRAME_グー.png,0.0,0.0,0.0,1.46484,-4.88281,-14.7705,
2020-05-10 21:33:19 +0900,16.400000000000002,-0.000740000000000407,-44.142999999999994,104.8,0.014160000000000394,0.013419999999999987,41.5888,-2.5541999999999945,0,0,0,0,1,283:FRAME_グー.png,0.0,0.0,0.0,-0.244141,-3.78418,-15.3809,
2020-05-10 21:33:19 +0900,16.5,-0.02290000000000081,-44.142999999999994,104.7,0.0028300000000003322,-0.020070000000000476,41.5888,-2.5541999999999945,0,0,0,0,1,283:FRAME_グー.png,0.0,0.0,0.0,-1.15967,-1.52588,-9.76562,
2020-05-10 21:33:19 +0900,16.6,-0.04486000000000079,-44.142999999999994,104.6,-0.008479999999999599,-0.05334000000000039,41.5888,-2.5541999999999945,0,0,0,0,1,283:FRAME_グー.png,0.0,0.0,0.0,-1.58691,1.52588,-0.183105,
2020-05-10 21:33:19 +0900,16.7,-0.06711000000000045,-44.142999999999994,104.5,-0.02256999999999998,-0.08968000000000043,41.5888,-2.5541999999999945,0,0,0,0,1,283:FRAME_グー.png,0.0,0.0,0.0,-1.0376,0.976562,8.91113,
2020-05-10 21:33:19 +0900,16.8,-0.04769000000000023,-44.142999999999994,104.5,-0.005650000000000155,-0.05334000000000039,41.5888,-2.5541999999999945,0,0,0,0,1,283:FRAME_グー.png,0.0,0.0,0.0,1.95312,1.15967,13.2446,
2020-05-10 21:33:19 +0900,16.900000000000002,-0.006420000000000314,-43.02719999999999,104.6,0.019840000000000302,0.013419999999999987,41.5888,-1.4383999999999943,0,0,0,0,1,283:FRAME_グー.png,0.0,0.0,0.0,0.854492,0.732422,13.3667,
2020-05-10 21:33:19 +0900,17.0,-0.0030600000000005068,-41.5888,104.4,0.019840000000000302,0.016779999999999795,41.5888,0.0,0,0,0,0,1,283:FRAME_グー.png,0.0,0.0,0.0,2.44141,0.366211,5.79834,
2020-05-10 21:33:20 +0900,17.1,-0.0069400000000010564,-41.5888,104.3,0.017000000000000348,0.010059999999999292,41.5888,0.0,0,0,0,0,1,283:FRAME_グー.png,0.0,0.0,0.0,-0.671387,-1.09863,-4.3335,
2020-05-10 21:33:20 +0900,17.2,-0.019560000000000244,-43.02719999999999,104.4,0.0028300000000003322,-0.01672999999999991,41.5888,-1.4383999999999943,0,0,0,0,1,283:FRAME_グー.png,0.0,0.0,0.0,-2.13623,-2.99072,-14.9536,
2020-05-10 21:33:20 +0900,17.3,-0.046820000000000306,-43.02719999999999,104.4,-0.019759999999999778,-0.06658000000000008,41.5888,-1.4383999999999943,0,0,0,0,1,283:FRAME_グー.png,0.0,0.0,0.0,-2.13623,-1.46484,-12.8784,
2020-05-10 21:33:20 +0900,17.400000000000002,-0.04105000000000025,-43.02719999999999,104.3,-0.005650000000000155,-0.04670000000000041,41.5888,-1.4383999999999943,0,0,0,0,1,283:FRAME_グー.png,0.0,0.0,0.0,-2.01416,-0.12207,-6.34766,
2020-05-10 21:33:20 +0900,17.5,-0.03190000000000026,-44.142999999999994,104.1,0.008490000000000109,-0.023410000000000153,41.5888,-2.5541999999999945,0,0,0,0,1,283:FRAME_グー.png,0.0,0.0,0.0,-1.58691,-0.244141,2.80762,
2020-05-10 21:33:20 +0900,17.6,-0.04189000000000043,-44.142999999999994,103.8,0.008490000000000109,-0.03340000000000032,41.5888,-2.5541999999999945,0,0,0,0,1,283:FRAME_グー.png,0.0,0.0,0.0,0.732422,0.12207,9.58252,
2020-05-10 21:33:20 +0900,17.7,-0.041390000000000704,-44.142999999999994,103.6,0.01132000000000044,-0.030070000000000263,41.5888,-2.5541999999999945,0,0,0,0,1,283:FRAME_グー.png,0.0,0.0,0.0,1.15967,2.2583,16.0522,
2020-05-10 21:33:20 +0900,17.8,-0.03573000000000093,-44.142999999999994,103.4,0.0056600000000006645,-0.030070000000000263,41.5888,-2.5541999999999945,0,0,0,0,1,283:FRAME_グー.png,0.0,0.0,0.0,0.0,2.44141,15.1978,
2020-05-10 21:33:20 +0900,17.900000000000002,-0.04006000000000043,-44.142999999999994,103.1,0.0,-0.04006000000000043,41.5888,-2.5541999999999945,0,0,0,0,1,283:FRAME_グー.png,0.0,0.0,0.0,0.12207,1.2207,5.31006,
2020-05-10 21:33:20 +0900,18.0,-0.009260000000000268,-43.02719999999999,102.9,0.022680000000000256,0.013419999999999987,41.5888,-1.4383999999999943,0,0,0,0,1,283:FRAME_グー.png,0.0,0.0,0.0,0.12207,1.2207,5.31006,
2020-05-10 21:33:21 +0900,18.1,0.00525999999999982,-43.02719999999999,102.4,0.028360000000000163,0.03361999999999998,41.5888,-1.4383999999999943,0,0,0,0,1,283:FRAME_グー.png,0.0,0.0,0.0,-1.77002,-2.62451,-6.65283,
2020-05-10 21:33:21 +0900,18.2,-0.013140000000000818,-43.02719999999999,102.1,0.019840000000000302,0.006699999999999484,41.5888,-1.4383999999999943,0,0,0,0,1,283:FRAME_グー.png,0.0,0.0,0.0,-1.89209,-3.66211,-14.7705,
2020-05-10 21:33:21 +0900,18.3,-0.028560000000000585,-43.02719999999999,102.1,0.008490000000000109,-0.020070000000000476,41.5888,-1.4383999999999943,0,0,0,0,1,283:FRAME_グー.png,0.0,0.0,0.0,-1.77002,-2.68555,-12.5122,
2020-05-10 21:33:21 +0900,18.400000000000002,-0.051000000000000156,-43.02719999999999,101.9,-0.005650000000000155,-0.05665000000000031,41.5888,-1.4383999999999943,0,0,0,0,1,283:FRAME_グー.png,0.0,0.0,0.0,-1.15967,-0.244141,-1.34277,
2020-05-10 21:33:21 +0900,18.5,-0.06189000000000089,-43.02719999999999,101.7,-0.011299999999999422,-0.07319000000000031,41.5888,-1.4383999999999943,0,0,0,0,1,283:FRAME_グー.png,0.0,0.0,0.0,-0.610352,-0.183105,5.79834,
2020-05-10 21:33:21 +0900,18.6,-0.02370000000000072,-44.142999999999994,101.9,0.017000000000000348,-0.006700000000000372,41.5888,-2.5541999999999945,0,0,0,0,1,283:FRAME_グー.png,0.0,0.0,0.0,0.854492,1.40381,12.8174,
2020-05-10 21:33:21 +0900,18.7,0.0018899999999995032,-44.142999999999994,101.4,0.028360000000000163,0.030249999999999666,41.5888,-2.5541999999999945,0,0,0,0,1,283:FRAME_グー.png,0.0,0.0,0.0,0.549316,0.915527,13.5498,
2020-05-10 21:33:21 +0900,18.8,0.0018899999999995032,-44.142999999999994,101.0,0.028360000000000163,0.030249999999999666,41.5888,-2.5541999999999945,0,0,0,0,1,283:FRAME_グー.png,0.0,0.0,0.0,3.90625,0.915527,12.4512,
2020-05-10 21:33:21 +0900,18.900000000000002,0.004199999999999093,-44.142999999999994,100.8,0.022680000000000256,0.02687999999999935,41.5888,-2.5541999999999945,0,0,0,0,1,283:FRAME_グー.png,0.0,0.0,0.0,1.28174,0.12207,3.05176,
2020-05-10 21:33:21 +0900,19.0,-0.0056600000000006645,-44.142999999999994,100.5,0.0056600000000006645,0.0,41.5888,-2.5541999999999945,0,0,0,0,1,283:FRAME_グー.png,0.0,0.0,0.0,-2.56348,-2.2583,-11.1084,
2020-05-10 21:33:22 +0900,19.1,-0.02442000000000011,-44.142999999999994,100.2,-0.005650000000000155,-0.030070000000000263,41.5888,-2.5541999999999945,0,0,0,0,1,283:FRAME_グー.png,0.0,0.0,0.0,-2.74658,-3.05176,-14.5874,
2020-05-10 21:33:22 +0900,19.200000000000003,-0.004620000000000957,-43.02719999999999,99.8,0.01132000000000044,0.006699999999999484,41.5888,-1.4383999999999943,0,0,0,0,1,283:FRAME_グー.png,0.0,0.0,0.0,-1.09863,-1.89209,-8.42285,
2020-05-10 21:33:22 +0900,19.3,-0.004620000000000957,-41.5888,99.3,0.01132000000000044,0.006699999999999484,41.5888,0.0,0,0,0,0,1,283:FRAME_グー.png,0.0,0.0,0.0,-1.2207,-0.793457,-1.64795,
2020-05-10 21:33:22 +0900,19.400000000000002,-0.011840000000000295,-41.5888,99.1,0.008490000000000109,-0.003350000000000186,41.5888,0.0,0,0,0,0,1,283:FRAME_グー.png,0.0,0.0,0.0,-0.549316,-0.732422,5.7373,
2020-05-10 21:33:22 +0900,19.5,-0.00901000000000085,-43.02719999999999,98.9,0.0056600000000006645,-0.003350000000000186,41.5888,-1.4383999999999943,0,0,0,0,1,283:FRAME_グー.png,0.0,0.0,0.0,0.488281,0.427246,11.7798,
2020-05-10 21:33:22 +0900,19.6,-0.0038700000000009283,-43.02719999999999,98.7,-0.002829999999999444,-0.006700000000000372,41.5888,-1.4383999999999943,0,0,0,0,1,283:FRAME_グー.png,0.0,0.0,0.0,0.976562,0.793457,13.6719,
2020-05-10 21:33:22 +0900,19.700000000000003,-0.0015700000000009595,-44.142999999999994,98.5,-0.008479999999999599,-0.010050000000000558,41.5888,-2.5541999999999945,0,0,0,0,1,283:FRAME_グー.png,0.0,0.0,0.0,0.671387,-1.15967,8.54492,
2020-05-10 21:33:22 +0900,19.8,0.039199999999999235,-44.142999999999994,98.2,0.01132000000000044,0.050519999999999676,41.5888,-2.5541999999999945,0,0,0,0,1,283:FRAME_グー.png,0.0,0.0,0.0,-0.12207,-2.44141,-2.38037,
2020-05-10 21:33:22 +0900,19.900000000000002,0.042589999999998795,-45.05459999999999,97.8,0.01132000000000044,0.053909999999999236,41.5888,-3.4657999999999944,0,0,0,0,1,283:FRAME_グー.png,0.0,0.0,0.0,-1.83105,-2.31934,-11.1084,
2020-05-10 21:33:22 +0900,20.0,0.024049999999999017,-45.05459999999999,97.4,0.0028300000000003322,0.02687999999999935,41.5888,-3.4657999999999944,0,0,0,0,1,284:FRAME_チョキ.png,0.0,0.0,0.0,-0.12207,-2.74658,-14.4043,
2020-05-10 21:33:23 +0900,20.1,0.008479999999999599,-44.142999999999994,97.1,-0.008479999999999599,0.0,41.5888,-2.5541999999999945,0,0,0,0,1,284:FRAME_チョキ.png,0.0,0.0,0.0,-1.09863,-1.0376,-7.32422,
2020-05-10 21:33:23 +0900,20.200000000000003,-0.008010000000000517,-44.142999999999994,96.9,-0.0253899999999998,-0.03340000000000032,41.5888,-2.5541999999999945,0,0,0,0,1,284:FRAME_チョキ.png,0.0,0.0,0.0,-0.793457,-1.09863,1.95312,
2020-05-10 21:33:23 +0900,20.3,-0.008010000000000517,-43.02719999999999,96.7,-0.0253899999999998,-0.03340000000000032,41.5888,-1.4383999999999943,0,0,0,0,1,284:FRAME_チョキ.png,0.0,0.0,0.0,2.80762,0.488281,9.58252,
2020-05-10 21:33:23 +0900,20.400000000000002,0.03416999999999959,-43.02719999999999,96.6,0.0028300000000003322,0.03699999999999992,41.5888,-1.4383999999999943,0,0,0,0,1,284:FRAME_チョキ.png,0.0,0.0,0.0,3.479,2.50244,12.3901,
2020-05-10 21:33:23 +0900,20.5,0.048799999999999955,-41.5888,96.5,0.008490000000000109,0.05729000000000006,41.5888,0.0,0,0,0,0,1,284:FRAME_チョキ.png,0.0,0.0,0.0,0.549316,2.01416,9.58252,
2020-05-10 21:33:23 +0900,20.6,0.044309999999999405,-41.5888,96.4,0.0028300000000003322,0.04713999999999974,41.5888,0.0,0,0,0,0,1,284:FRAME_チョキ.png,0.0,0.0,0.0,0.854492,-0.0610352,5.79834,
2020-05-10 21:33:23 +0900,20.700000000000003,0.038729999999999265,-43.02719999999999,96.3,-0.008479999999999599,0.030249999999999666,41.5888,-1.4383999999999943,0,0,0,0,1,284:FRAME_チョキ.png,0.0,0.0,0.0,2.19727,-2.50244,-5.79834,
2020-05-10 21:33:23 +0900,20.8,0.008129999999999526,-44.142999999999994,96.2,-0.028200000000000003,-0.020070000000000476,41.5888,-2.5541999999999945,0,0,0,0,1,284:FRAME_チョキ.png,0.0,0.0,0.0,-0.12207,-3.23486,-13.9771,
2020-05-10 21:33:23 +0900,20.900000000000002,-0.005720000000001058,-44.142999999999994,96.0,-0.031009999999999316,-0.03673000000000037,41.5888,-2.5541999999999945,0,0,0,0,1,284:FRAME_チョキ.png,0.0,0.0,0.0,-2.19727,-1.15967,-4.76074,
2020-05-10 21:33:23 +0900,21.0,0.017999999999998906,-44.142999999999994,95.9,-0.011299999999999422,0.006699999999999484,41.5888,-2.5541999999999945,0,0,0,0,1,284:FRAME_チョキ.png,0.0,0.0,0.0,-2.01416,-1.15967,1.34277,
2020-05-10 21:33:24 +0900,21.1,0.017999999999998906,-44.142999999999994,95.8,-0.011299999999999422,0.006699999999999484,41.5888,-2.5541999999999945,0,0,0,0,1,284:FRAME_チョキ.png,0.0,0.0,0.0,-0.610352,0.183105,8.42285,
2020-05-10 21:33:24 +0900,21.200000000000003,0.017999999999998906,-44.142999999999994,95.6,-0.011299999999999422,0.006699999999999484,41.5888,-2.5541999999999945,0,0,0,0,1,284:FRAME_チョキ.png,0.0,0.0,0.0,-0.183105,0.976562,11.3525,
2020-05-10 21:33:24 +0900,21.3,0.020819999999999617,-44.142999999999994,95.6,-0.014120000000000132,0.006699999999999484,41.5888,-2.5541999999999945,0,0,0,0,1,284:FRAME_チョキ.png,0.0,0.0,0.0,0.366211,0.915527,10.0708,
2020-05-10 21:33:24 +0900,21.400000000000002,0.015339999999999243,-44.142999999999994,95.5,-0.0253899999999998,-0.010050000000000558,41.5888,-2.5541999999999945,0,0,0,0,1,284:FRAME_チョキ.png,0.0,0.0,0.0,1.0376,-0.915527,3.17383,
2020-05-10 21:33:24 +0900,21.5,0.02256999999999998,-43.02719999999999,95.5,-0.02256999999999998,0.0,41.5888,-1.4383999999999943,0,0,0,0,1,284:FRAME_チョキ.png,0.0,0.0,0.0,2.31934,-2.19727,-7.26318,
2020-05-10 21:33:24 +0900,21.6,0.049399999999999444,-43.02719999999999,95.5,-0.005650000000000155,0.04374999999999929,41.5888,-1.4383999999999943,0,0,0,0,1,284:FRAME_チョキ.png,0.0,0.0,0.0,1.58691,-3.96729,-14.7705,
2020-05-10 21:33:24 +0900,21.700000000000003,0.034259999999999735,-43.02719999999999,95.6,-0.014120000000000132,0.020139999999999603,41.5888,-1.4383999999999943,0,0,0,0,1,284:FRAME_チョキ.png,0.0,0.0,0.0,1.95312,-2.13623,-14.2822,
2020-05-10 21:33:24 +0900,21.8,0.009179999999999744,-41.5888,95.8,-0.02256999999999998,-0.013390000000000235,41.5888,0.0,0,0,0,0,1,284:FRAME_チョキ.png,0.0,0.0,0.0,-0.427246,-0.671387,-5.7373,
2020-05-10 21:33:24 +0900,21.900000000000002,-0.01288000000000089,-43.02719999999999,95.9,-0.03381999999999952,-0.04670000000000041,41.5888,-1.4383999999999943,0,0,0,0,1,284:FRAME_チョキ.png,0.0,0.0,0.0,0.0,1.09863,4.57764,
2020-05-10 21:33:24 +0900,22.0,-0.0314400000000008,-43.02719999999999,96.1,-0.04504999999999981,-0.07649000000000061,41.5888,-1.4383999999999943,0,0,0,0,1,284:FRAME_チョキ.png,0.0,0.0,0.0,0.183105,1.77002,13.3057,
2020-05-10 21:33:25 +0900,22.1,-0.01083000000000034,-43.02719999999999,96.2,-0.02256999999999998,-0.03340000000000032,41.5888,-1.4383999999999943,0,0,0,0,1,284:FRAME_チョキ.png,0.0,0.0,0.0,0.732422,1.70898,13.0615,
2020-05-10 21:33:25 +0900,22.200000000000003,0.027419999999999334,-44.142999999999994,96.4,0.0028300000000003322,0.030249999999999666,41.5888,-2.5541999999999945,0,0,0,0,1,284:FRAME_チョキ.png,0.0,0.0,0.0,-0.12207,1.46484,12.4512,
2020-05-10 21:33:25 +0900,22.3,0.03133999999999926,-44.142999999999994,96.6,0.0056600000000006645,0.03699999999999992,41.5888,-2.5541999999999945,0,0,0,0,1,284:FRAME_チョキ.png,0.0,0.0,0.0,-0.305176,0.305176,4.21143,
2020-05-10 21:33:25 +0900,22.400000000000002,0.03078999999999965,-44.142999999999994,96.7,0.0028300000000003322,0.03361999999999998,41.5888,-2.5541999999999945,0,0,0,0,1,284:FRAME_チョキ.png,0.0,0.0,0.0,1.40381,-1.58691,-8.05664,
2020-05-10 21:33:25 +0900,22.5,0.01853999999999889,-43.02719999999999,96.7,-0.008479999999999599,0.010059999999999292,41.5888,-1.4383999999999943,0,0,0,0,1,284:FRAME_チョキ.png,0.0,0.0,0.0,0.0,-3.17383,-13.5498,
2020-05-10 21:33:25 +0900,22.6,-0.004680000000000462,-43.02719999999999,96.6,-0.0253899999999998,-0.030070000000000263,41.5888,-1.4383999999999943,0,0,0,0,1,284:FRAME_チョキ.png,0.0,0.0,0.0,-1.52588,-3.479,-15.686,
2020-05-10 21:33:25 +0900,22.700000000000003,0.008479999999999599,-43.02719999999999,96.7,-0.008479999999999599,0.0,41.5888,-1.4383999999999943,0,0,0,0,1,284:FRAME_チョキ.png,0.0,0.0,0.0,-1.52588,-3.479,-15.686,
2020-05-10 21:33:25 +0900,22.8,0.017849999999999255,-43.02719999999999,96.9,0.0056600000000006645,0.02350999999999992,41.5888,-1.4383999999999943,0,0,0,0,1,284:FRAME_チョキ.png,0.0,0.0,0.0,-3.479,-0.549316,-7.01904,
2020-05-10 21:33:25 +0900,22.900000000000002,0.004399999999998627,-41.5888,97.1,0.0056600000000006645,0.010059999999999292,41.5888,0.0,0,0,0,0,1,284:FRAME_チョキ.png,0.0,0.0,0.0,-0.732422,0.915527,6.10352,
2020-05-10 21:33:26 +0900,23.0,0.007759999999999323,-41.5888,97.3,0.0056600000000006645,0.013419999999999987,41.5888,0.0,0,0,0,0,1,284:FRAME_チョキ.png,0.0,0.0,0.0,0.854492,0.915527,13.4277,
2020-05-10 21:33:26 +0900,23.1,0.006699999999999484,-44.142999999999994,97.3,0.0,0.006699999999999484,41.5888,-2.5541999999999945,0,0,0,0,1,284:FRAME_チョキ.png,0.0,0.0,0.0,1.2207,1.15967,14.2822,
2020-05-10 21:33:26 +0900,23.200000000000003,0.008479999999999599,-44.142999999999994,97.3,-0.008479999999999599,0.0,41.5888,-2.5541999999999945,0,0,0,0,1,284:FRAME_チョキ.png,0.0,0.0,0.0,-0.12207,1.58691,12.3291,
2020-05-10 21:33:26 +0900,23.3,0.03690999999999889,-44.142999999999994,97.3,0.017000000000000348,0.053909999999999236,41.5888,-2.5541999999999945,0,0,0,0,1,284:FRAME_チョキ.png,0.0,0.0,0.0,-0.976562,1.15967,0.793457,
2020-05-10 21:33:26 +0900,23.400000000000002,0.04250999999999916,-44.142999999999994,97.2,0.028360000000000163,0.07086999999999932,41.5888,-2.5541999999999945,0,0,0,0,1,284:FRAME_チョキ.png,0.0,0.0,0.0,-2.13623,-2.68555,-11.4136,
2020-05-10 21:33:26 +0900,23.5,0.02783999999999942,-44.142999999999994,97.2,0.022680000000000256,0.050519999999999676,41.5888,-2.5541999999999945,0,0,0,0,1,284:FRAME_チョキ.png,0.0,0.0,0.0,-1.58691,-5.06592,-18.6157,
2020-05-10 21:33:26 +0900,23.6,0.012189999999999479,-44.142999999999994,97.1,0.01132000000000044,0.02350999999999992,41.5888,-2.5541999999999945,0,0,0,0,1,284:FRAME_チョキ.png,0.0,0.0,0.0,0.793457,-3.41797,-14.9536,
2020-05-10 21:33:26 +0900,23.700000000000003,-0.00774000000000008,-43.02719999999999,97.2,-0.005650000000000155,-0.013390000000000235,41.5888,-1.4383999999999943,0,0,0,0,1,284:FRAME_チョキ.png,0.0,0.0,0.0,-1.95312,0.488281,-5.67627,
2020-05-10 21:33:26 +0900,23.8,-0.01595000000000013,-41.5888,97.2,-0.014120000000000132,-0.030070000000000263,41.5888,0.0,0,0,0,0,1,284:FRAME_チョキ.png,0.0,0.0,0.0,-1.77002,0.915527,4.76074,
2020-05-10 21:33:26 +0900,23.900000000000002,0.022299999999999542,-41.5888,97.5,0.01132000000000044,0.03361999999999998,41.5888,0.0,0,0,0,0,1,284:FRAME_チョキ.png,0.0,0.0,0.0,1.40381,1.09863,11.1694,
2020-05-10 21:33:26 +0900,24.0,0.04084999999999894,-43.02719999999999,97.7,0.019840000000000302,0.060689999999999245,41.5888,-1.4383999999999943,0,0,0,0,1,284:FRAME_チョキ.png,0.0,0.0,0.0,1.15967,2.19727,12.9395,
2020-05-10 21:33:27 +0900,24.1,0.040289999999999715,-43.02719999999999,97.7,0.017000000000000348,0.05729000000000006,41.5888,-1.4383999999999943,0,0,0,0,1,284:FRAME_チョキ.png,0.0,0.0,0.0,-1.28174,0.915527,11.8408,
2020-05-10 21:33:27 +0900,24.200000000000003,0.03864999999999963,-43.02719999999999,97.8,0.008490000000000109,0.04713999999999974,41.5888,-1.4383999999999943,0,0,0,0,1,284:FRAME_チョキ.png,0.0,0.0,0.0,0.183105,-0.976562,2.19727,
2020-05-10 21:33:27 +0900,24.3,0.025259999999999394,-43.02719999999999,97.7,-0.008479999999999599,0.016779999999999795,41.5888,-1.4383999999999943,0,0,0,0,1,284:FRAME_チョキ.png,0.0,0.0,0.0,-0.610352,-2.2583,-8.42285,
2020-05-10 21:33:27 +0900,24.400000000000002,0.00970999999999922,-44.142999999999994,97.6,-0.019759999999999778,-0.010050000000000558,41.5888,-2.5541999999999945,0,0,0,0,1,284:FRAME_チョキ.png,0.0,0.0,0.0,-0.488281,-2.56348,-13.3667,
2020-05-10 21:33:27 +0900,24.5,0.029709999999998793,-44.142999999999994,97.5,-0.002829999999999444,0.02687999999999935,41.5888,-2.5541999999999945,0,0,0,0,1,284:FRAME_チョキ.png,0.0,0.0,0.0,-1.15967,-3.2959,-12.146,
2020-05-10 21:33:27 +0900,24.6,0.025789999999999758,-44.142999999999994,97.5,-0.005650000000000155,0.020139999999999603,41.5888,-2.5541999999999945,0,0,0,0,1,284:FRAME_チョキ.png,0.0,0.0,0.0,0.183105,-1.77002,-1.89209,
2020-05-10 21:33:27 +0900,24.700000000000003,0.01746999999999943,-43.02719999999999,97.4,-0.014120000000000132,0.003349999999999298,41.5888,-1.4383999999999943,0,0,0,0,1,284:FRAME_チョキ.png,0.0,0.0,0.0,0.915527,0.732422,7.44629,
2020-05-10 21:33:27 +0900,24.8,0.013589999999999769,-43.02719999999999,97.2,-0.016939999999999955,-0.003350000000000186,41.5888,-1.4383999999999943,0,0,0,0,1,284:FRAME_チョキ.png,0.0,0.0,0.0,0.915527,2.31934,13.3057,
2020-05-10 21:33:27 +0900,24.900000000000002,0.01093999999999884,-43.02719999999999,97.2,-0.031009999999999316,-0.020070000000000476,41.5888,-1.4383999999999943,0,0,0,0,1,284:FRAME_チョキ.png,0.0,0.0,0.0,1.2207,2.38037,11.5967,
2020-05-10 21:33:27 +0900,25.0,0.020959999999998757,-43.02719999999999,97.2,-0.031009999999999316,-0.010050000000000558,41.5888,-1.4383999999999943,0,0,0,0,1,285:FRAME_パー.png,0.0,0.0,0.0,0.366211,2.0752,8.17871,
2020-05-10 21:33:28 +0900,25.1,0.058999999999999275,-41.5888,97.4,-0.008479999999999599,0.050519999999999676,41.5888,0.0,0,0,0,0,1,285:FRAME_パー.png,0.0,0.0,0.0,-0.854492,-0.549316,0.183105,
2020-05-10 21:33:28 +0900,25.200000000000003,0.05786999999999942,-43.02719999999999,97.4,-0.014120000000000132,0.04374999999999929,41.5888,-1.4383999999999943,0,0,0,0,1,285:FRAME_パー.png,0.0,0.0,0.0,-1.15967,-3.72314,-10.9863,
2020-05-10 21:33:28 +0900,25.3,0.0421699999999996,-43.02719999999999,97.4,-0.0253899999999998,0.016779999999999795,41.5888,-1.4383999999999943,0,0,0,0,1,285:FRAME_パー.png,0.0,0.0,0.0,-0.732422,-3.96729,-16.1743,
2020-05-10 21:33:28 +0900,25.400000000000002,0.022710000000000008,-43.02719999999999,97.5,-0.03943999999999992,-0.01672999999999991,41.5888,-1.4383999999999943,0,0,0,0,1,285:FRAME_パー.png,0.0,0.0,0.0,-1.64795,-2.62451,-8.78906,
2020-05-10 21:33:28 +0900,25.5,-0.000920000000000698,-44.142999999999994,97.7,-0.05903999999999954,-0.059960000000000235,41.5888,-2.5541999999999945,0,0,0,0,1,285:FRAME_パー.png,0.0,0.0,0.0,-1.34277,-1.83105,0.183105,
2020-05-10 21:33:28 +0900,25.6,-0.004230000000000622,-43.02719999999999,97.9,-0.05903999999999954,-0.06327000000000016,41.5888,-1.4383999999999943,0,0,0,0,1,285:FRAME_パー.png,0.0,0.0,0.0,0.549316,0.0610352,5.12695,
2020-05-10 21:33:28 +0900,25.700000000000003,0.03327999999999953,-43.02719999999999,98.1,-0.03662999999999972,-0.003350000000000186,41.5888,-1.4383999999999943,0,0,0,0,1,285:FRAME_パー.png,0.0,0.0,0.0,-0.854492,2.2583,11.9019,
2020-05-10 21:33:28 +0900,25.8,0.040519999999999,-44.142999999999994,98.2,-0.03381999999999952,0.006699999999999484,41.5888,-2.5541999999999945,0,0,0,0,1,285:FRAME_パー.png,0.0,0.0,0.0,-0.427246,1.70898,12.6953,
2020-05-10 21:33:28 +0900,25.900000000000002,0.03608999999999973,-44.142999999999994,98.2,-0.03943999999999992,-0.003350000000000186,41.5888,-2.5541999999999945,0,0,0,0,1,285:FRAME_パー.png,0.0,0.0,0.0,1.28174,1.09863,8.48389,
2020-05-10 21:33:28 +0900,26.0,0.027779999999999028,-43.02719999999999,98.2,-0.047849999999999504,-0.020070000000000476,41.5888,-1.4383999999999943,0,0,0,0,1,285:FRAME_パー.png,0.0,0.0,0.0,0.915527,-0.183105,-1.89209,
2020-05-10 21:33:29 +0900,26.1,0.0018699999999993722,-43.02719999999999,98.3,-0.06182999999999961,-0.059960000000000235,41.5888,-1.4383999999999943,0,0,0,0,1,285:FRAME_パー.png,0.0,0.0,0.0,-1.52588,-3.23486,-11.7798,
2020-05-10 21:33:29 +0900,26.200000000000003,-0.004750000000000476,-43.02719999999999,98.4,-0.06182999999999961,-0.06658000000000008,41.5888,-1.4383999999999943,0,0,0,0,1,285:FRAME_パー.png,0.0,0.0,0.0,-0.793457,-2.80762,-13.0615,
2020-05-10 21:33:29 +0900,26.3,0.018309999999999604,-43.02719999999999,98.4,-0.04504999999999981,-0.026740000000000208,41.5888,-1.4383999999999943,0,0,0,0,1,285:FRAME_パー.png,0.0,0.0,0.0,-0.305176,-2.01416,-6.7749,
2020-05-10 21:33:29 +0900,26.400000000000002,0.00727000000000011,-43.02719999999999,98.6,-0.050650000000000084,-0.043379999999999974,41.5888,-1.4383999999999943,0,0,0,0,1,285:FRAME_パー.png,0.0,0.0,0.0,-0.427246,-0.793457,0.915527,
2020-05-10 21:33:29 +0900,26.5,-0.0037200000000003897,-43.02719999999999,98.7,-0.056239999999999846,-0.059960000000000235,41.5888,-1.4383999999999943,0,0,0,0,1,285:FRAME_パー.png,0.0,0.0,0.0,0.0610352,0.671387,6.16455,
2020-05-10 21:33:29 +0900,26.6,-0.0052600000000007086,-44.142999999999994,98.9,-0.0646299999999993,-0.06989000000000001,41.5888,-2.5541999999999945,0,0,0,0,1,285:FRAME_パー.png,0.0,0.0,0.0,0.305176,1.46484,10.6201,
2020-05-10 21:33:29 +0900,26.700000000000003,-0.007810000000000095,-44.142999999999994,99.1,-0.07857000000000003,-0.08638000000000012,41.5888,-2.5541999999999945,0,0,0,0,1,285:FRAME_パー.png,0.0,0.0,0.0,-0.12207,0.793457,10.2539,
2020-05-10 21:33:29 +0900,26.8,0.00693999999999928,-44.142999999999994,99.2,-0.07020999999999944,-0.06327000000000016,41.5888,-2.5541999999999945,0,0,0,0,1,285:FRAME_パー.png,0.0,0.0,0.0,0.488281,-0.0610352,2.13623,
2020-05-10 21:33:29 +0900,26.900000000000002,0.0333799999999993,-44.142999999999994,99.2,-0.053449999999999775,-0.020070000000000476,41.5888,-2.5541999999999945,0,0,0,0,1,285:FRAME_パー.png,0.0,0.0,0.0,-0.915527,-2.62451,-5.43213,
2020-05-10 21:33:30 +0900,27.0,0.025099999999999234,-44.142999999999994,99.2,-0.06182999999999961,-0.03673000000000037,41.5888,-2.5541999999999945,0,0,0,0,1,285:FRAME_パー.png,0.0,0.0,0.0,-0.0610352,-3.72314,-13.3667,
2020-05-10 21:33:30 +0900,27.1,0.010249999999999204,-43.02719999999999,99.5,-0.07020999999999944,-0.059960000000000235,41.5888,-1.4383999999999943,0,0,0,0,1,285:FRAME_パー.png,0.0,0.0,0.0,1.28174,-1.95312,-10.5591,
2020-05-10 21:33:30 +0900,27.200000000000003,-0.015410000000000146,-43.02719999999999,99.6,-0.08413000000000004,-0.09954000000000018,41.5888,-1.4383999999999943,0,0,0,0,1,285:FRAME_パー.png,0.0,0.0,0.0,-0.671387,-0.0610352,-0.671387,
2020-05-10 21:33:30 +0900,27.3,-0.04502000000000006,-43.02719999999999,99.8,-0.10355999999999987,-0.14857999999999993,41.5888,-1.4383999999999943,0,0,0,0,1,285:FRAME_パー.png,0.0,0.0,0.0,-0.671387,-0.0610352,-0.671387,
2020-05-10 21:33:30 +0900,27.400000000000002,-0.026250000000000107,-43.02719999999999,100.0,-0.08969000000000005,-0.11594000000000015,41.5888,-1.4383999999999943,0,0,0,0,1,285:FRAME_パー.png,0.0,0.0,0.0,-0.671387,1.2207,5.31006,
2020-05-10 21:33:30 +0900,27.5,0.006409999999999805,-43.02719999999999,100.0,-0.07298999999999989,-0.06658000000000008,41.5888,-1.4383999999999943,0,0,0,0,1,285:FRAME_パー.png,0.0,0.0,0.0,0.488281,1.64795,11.1694,
2020-05-10 21:33:30 +0900,27.6,0.012509999999999799,-43.02719999999999,99.9,-0.07577999999999996,-0.06327000000000016,41.5888,-1.4383999999999943,0,0,0,0,1,285:FRAME_パー.png,0.0,0.0,0.0,0.854492,1.58691,13.1226,
2020-05-10 21:33:30 +0900,27.700000000000003,0.014769999999999506,-44.142999999999994,100.0,-0.08134999999999959,-0.06658000000000008,41.5888,-2.5541999999999945,0,0,0,0,1,285:FRAME_パー.png,0.0,0.0,0.0,1.83105,1.70898,9.94873,
2020-05-10 21:33:30 +0900,27.8,0.006089999999999485,-44.142999999999994,100.1,-0.09246999999999961,-0.08638000000000012,41.5888,-2.5541999999999945,0,0,0,0,1,285:FRAME_パー.png,0.0,0.0,0.0,-1.46484,-0.427246,1.46484,
2020-05-10 21:33:30 +0900,27.900000000000002,-0.013390000000000235,-43.02719999999999,100.0,-0.10909999999999975,-0.12248999999999999,41.5888,-1.4383999999999943,0,0,0,0,1,285:FRAME_パー.png,0.0,0.0,0.0,-2.38037,-3.2959,-9.27734,
2020-05-10 21:33:31 +0900,28.0,-0.004300000000000637,-43.02719999999999,100.0,-0.09523999999999955,-0.09954000000000018,41.5888,-1.4383999999999943,0,0,0,0,1,285:FRAME_パー.png,0.0,0.0,0.0,-0.0610352,-3.2959,-15.564,
2020-05-10 21:33:31 +0900,28.1,9.999999999621423e-06,-43.02719999999999,100.0,-0.08969000000000005,-0.08968000000000043,41.5888,-1.4383999999999943,0,0,0,0,1,285:FRAME_パー.png,0.0,0.0,0.0,-0.976562,-3.90625,-11.2915,
2020-05-10 21:33:31 +0900,28.200000000000003,-0.015150000000000219,-43.02719999999999,100.0,-0.10078999999999994,-0.11594000000000015,41.5888,-1.4383999999999943,0,0,0,0,1,285:FRAME_パー.png,0.0,0.0,0.0,-1.34277,-1.46484,-3.479,
2020-05-10 21:33:31 +0900,28.3,-0.025460000000000704,-43.02719999999999,100.1,-0.10355999999999987,-0.12902000000000058,41.5888,-1.4383999999999943,0,0,0,0,1,285:FRAME_パー.png,0.0,0.0,0.0,0.0610352,0.610352,5.00488,
2020-05-10 21:33:31 +0900,28.400000000000002,-0.02695000000000025,-41.5888,99.9,-0.11186000000000007,-0.13881000000000032,41.5888,0.0,0,0,0,0,1,285:FRAME_パー.png,0.0,0.0,0.0,1.83105,1.70898,10.0098,
2020-05-10 21:33:31 +0900,28.5,-0.037690000000001334,-41.5888,99.9,-0.11738999999999944,-0.15508000000000077,41.5888,0.0,0,0,0,0,1,285:FRAME_パー.png,0.0,0.0,0.0,0.976562,2.44141,10.9863,
2020-05-10 21:33:31 +0900,28.6,-0.020200000000000884,-43.02719999999999,99.9,-0.09246999999999961,-0.11267000000000049,41.5888,-1.4383999999999943,0,0,0,0,1,285:FRAME_パー.png,0.0,0.0,0.0,0.488281,1.58691,6.46973,
2020-05-10 21:33:31 +0900,28.700000000000003,-0.021480000000000388,-44.142999999999994,99.8,-0.08134999999999959,-0.10282999999999998,41.5888,-2.5541999999999945,0,0,0,0,1,285:FRAME_パー.png,0.0,0.0,0.0,-0.183105,-0.732422,0.732422,
2020-05-10 21:33:31 +0900,28.8,-0.0411400000000004,-43.02719999999999,99.8,-0.08134999999999959,-0.12248999999999999,41.5888,-1.4383999999999943,0,0,0,0,1,285:FRAME_パー.png,0.0,0.0,0.0,-0.610352,-3.05176,-11.8408,
2020-05-10 21:33:31 +0900,28.900000000000002,-0.061670000000000336,-44.142999999999994,99.9,-0.0869099999999996,-0.14857999999999993,41.5888,-2.5541999999999945,0,0,0,0,1,285:FRAME_パー.png,0.0,0.0,0.0,-1.52588,-3.90625,-16.3574,
2020-05-10 21:33:31 +0900,29.0,-0.08990000000000009,-45.05459999999999,99.9,-0.10078999999999994,-0.19069000000000003,41.5888,-3.4657999999999944,0,0,0,0,1,285:FRAME_パー.png,0.0,0.0,0.0,-1.70898,-2.44141,-10.1929,
2020-05-10 21:33:32 +0900,29.1,-0.10600000000000076,-44.142999999999994,99.8,-0.10078999999999994,-0.2067900000000007,41.5888,-2.5541999999999945,0,0,0,0,1,285:FRAME_パー.png,0.0,0.0,0.0,-0.915527,-1.95312,-0.427246,
2020-05-10 21:33:32 +0900,29.200000000000003,-0.0783700000000005,-44.142999999999994,99.8,-0.07020999999999944,-0.14857999999999993,41.5888,-2.5541999999999945,0,0,0,0,1,285:FRAME_パー.png,0.0,0.0,0.0,0.183105,-0.549316,6.7749,
2020-05-10 21:33:32 +0900,29.3,-0.06766000000000094,-44.142999999999994,99.6,-0.0646299999999993,-0.13229000000000024,41.5888,-2.5541999999999945,0,0,0,0,1,285:FRAME_パー.png,0.0,0.0,0.0,-0.0610352,0.854492,11.3525,
2020-05-10 21:33:32 +0900,29.400000000000002,-0.06112000000000073,-41.5888,99.5,-0.0646299999999993,-0.12575000000000003,41.5888,0.0,0,0,0,0,1,285:FRAME_パー.png,0.0,0.0,0.0,0.732422,2.13623,13.3057,
2020-05-10 21:33:32 +0900,29.5,-0.0620800000000008,-43.02719999999999,99.4,-0.07020999999999944,-0.13229000000000024,41.5888,-1.4383999999999943,0,0,0,0,1,285:FRAME_パー.png,0.0,0.0,0.0,0.610352,2.13623,11.2915,
2020-05-10 21:33:32 +0900,29.6,-0.07791000000000103,-41.5888,99.4,-0.0869099999999996,-0.16482000000000063,41.5888,0.0,0,0,0,0,1,285:FRAME_パー.png,0.0,0.0,0.0,0.549316,-0.427246,-0.976562,
2020-05-10 21:33:32 +0900,29.700000000000003,-0.0806900000000006,-43.02719999999999,99.5,-0.08413000000000004,-0.16482000000000063,41.5888,-1.4383999999999943,0,0,0,0,1,285:FRAME_パー.png,0.0,0.0,0.0,-1.2207,-2.2583,-9.76562,
2020-05-10 21:33:32 +0900,29.8,-0.07046000000000063,-44.142999999999994,99.5,-0.06182999999999961,-0.13229000000000024,41.5888,-2.5541999999999945,0,0,0,0,1,285:FRAME_パー.png,0.0,0.0,0.0,-2.38037,-2.31934,-11.0474,
2020-05-10 21:33:32 +0900,29.900000000000002,-0.0965000000000007,-43.02719999999999,99.5,-0.06182999999999961,-0.1583300000000003,41.5888,-1.4383999999999943,0,0,0,0,1,285:FRAME_パー.png,0.0,0.0,0.0,-0.305176,-2.38037,-4.15039,
2020-05-10 21:33:33 +0900,30.0,-0.11226000000000091,-43.02719999999999,99.3,-0.05903999999999954,-0.17130000000000045,41.5888,-1.4383999999999943,0,0,0,0,1,282:FRAME_rest.png,0.0,0.0,0.0,-0.427246,-0.0610352,3.60107,
2020-05-10 21:33:33 +0900,30.1,-0.12196000000000051,-44.142999999999994,99.1,-0.05903999999999954,-0.18100000000000005,41.5888,-2.5541999999999945,0,0,0,0,1,282:FRAME_rest.png,0.0,0.0,0.0,-0.976562,0.976562,9.82666,
2020-05-10 21:33:33 +0900,30.200000000000003,-0.13531000000000049,-44.142999999999994,99.0,-0.06182999999999961,-0.1971400000000001,41.5888,-2.5541999999999945,0,0,0,0,1,282:FRAME_rest.png,0.0,0.0,0.0,-0.305176,0.0,10.8032,
2020-05-10 21:33:33 +0900,30.3,-0.10914000000000001,-44.142999999999994,98.8,-0.03943999999999992,-0.14857999999999993,41.5888,-2.5541999999999945,0,0,0,0,1,282:FRAME_rest.png,0.0,0.0,0.0,1.70898,0.976562,6.5918,
2020-05-10 21:33:33 +0900,30.400000000000002,-0.07885000000000009,-44.142999999999994,98.7,-0.014120000000000132,-0.09297000000000022,41.5888,-2.5541999999999945,0,0,0,0,1,282:FRAME_rest.png,0.0,0.0,0.0,-1.95312,-0.244141,2.13623,
2020-05-10 21:33:33 +0900,30.5,-0.08870999999999984,-43.02719999999999,98.7,-0.014120000000000132,-0.10282999999999998,41.5888,-1.4383999999999943,0,0,0,0,1,282:FRAME_rest.png,0.0,0.0,0.0,-0.610352,-1.09863,-6.46973,
2020-05-10 21:33:33 +0900,30.6,-0.09945000000000093,-43.02719999999999,99.0,-0.019759999999999778,-0.1192100000000007,41.5888,-1.4383999999999943,0,0,0,0,1,282:FRAME_rest.png,0.0,0.0,0.0,-0.793457,-1.83105,-12.9395,
2020-05-10 21:33:33 +0900,30.700000000000003,-0.10869000000000106,-41.5888,99.1,-0.03662999999999972,-0.14532000000000078,41.5888,0.0,0,0,0,0,1,282:FRAME_rest.png,0.0,0.0,0.0,-2.56348,-0.610352,-10.8032,
2020-05-10 21:33:33 +0900,30.8,-0.1215300000000008,-41.5888,99.2,-0.056239999999999846,-0.17777000000000065,41.5888,0.0,0,0,0,0,1,282:FRAME_rest.png,0.0,0.0,0.0,-2.2583,-0.0610352,-4.21143,
2020-05-10 21:33:33 +0900,30.900000000000002,-0.09983000000000075,-43.02719999999999,99.3,-0.04223999999999961,-0.14207000000000036,41.5888,-1.4383999999999943,0,0,0,0,1,282:FRAME_rest.png,0.0,0.0,0.0,0.915527,0.0,5.43213,
2020-05-10 21:33:34 +0900,31.0,-0.08493000000000084,-44.142999999999994,99.3,-0.031009999999999316,-0.11594000000000015,41.5888,-2.5541999999999945,0,0,0,0,1,282:FRAME_rest.png,0.0,0.0,0.0,1.58691,0.183105,10.9253,
2020-05-10 21:33:34 +0900,31.1,-0.08212000000000064,-44.142999999999994,99.3,-0.03381999999999952,-0.11594000000000015,41.5888,-2.5541999999999945,0,0,0,0,1,282:FRAME_rest.png,0.0,0.0,0.0,1.95312,0.915527,11.9019,
2020-05-10 21:33:34 +0900,31.200000000000003,-0.07323000000000057,-44.142999999999994,99.2,-0.03943999999999992,-0.11267000000000049,41.5888,-2.5541999999999945,0,0,0,0,1,282:FRAME_rest.png,0.0,0.0,0.0,1.58691,0.305176,7.8125,
2020-05-10 21:33:34 +0900,31.3,-0.08164000000000016,-44.142999999999994,99.2,-0.050650000000000084,-0.13229000000000024,41.5888,-2.5541999999999945,0,0,0,0,1,282:FRAME_rest.png,0.0,0.0,0.0,0.305176,-1.77002,-1.77002,
2020-05-10 21:33:34 +0900,31.400000000000002,-0.08303000000000083,-44.142999999999994,99.2,-0.05903999999999954,-0.14207000000000036,41.5888,-2.5541999999999945,0,0,0,0,1,282:FRAME_rest.png,0.0,0.0,0.0,0.183105,-2.62451,-9.15527,
2020-05-10 21:33:34 +0900,31.5,-0.06339000000000006,-44.142999999999994,99.1,-0.03943999999999992,-0.10282999999999998,41.5888,-2.5541999999999945,0,0,0,0,1,282:FRAME_rest.png,0.0,0.0,0.0,-0.549316,-3.2959,-12.0239,
2020-05-10 21:33:34 +0900,31.6,-0.060590000000000366,-43.02719999999999,99.0,-0.04223999999999961,-0.10282999999999998,41.5888,-1.4383999999999943,0,0,0,0,1,282:FRAME_rest.png,0.0,0.0,0.0,-0.183105,-2.44141,-6.53076,
2020-05-10 21:33:34 +0900,31.700000000000003,-0.07509999999999994,-43.02719999999999,99.2,-0.050650000000000084,-0.12575000000000003,41.5888,-1.4383999999999943,0,0,0,0,1,282:FRAME_rest.png,0.0,0.0,0.0,0.0610352,-0.610352,-0.854492,
2020-05-10 21:33:34 +0900,31.8,-0.08583000000000052,-43.02719999999999,99.2,-0.056239999999999846,-0.14207000000000036,41.5888,-1.4383999999999943,0,0,0,0,1,282:FRAME_rest.png,0.0,0.0,0.0,-0.915527,1.15967,7.56836,
2020-05-10 21:33:34 +0900,31.900000000000002,-0.09091000000000093,-43.02719999999999,99.2,-0.06741999999999937,-0.1583300000000003,41.5888,-1.4383999999999943,0,0,0,0,1,282:FRAME_rest.png,0.0,0.0,0.0,0.366211,2.38037,11.9629,
2020-05-10 21:33:35 +0900,32.0,-0.06904000000000021,-44.142999999999994,99.2,-0.053449999999999775,-0.12248999999999999,41.5888,-2.5541999999999945,0,0,0,0,1,282:FRAME_rest.png,0.0,0.0,0.0,0.366211,2.38037,11.9629,
2020-05-10 21:33:35 +0900,32.1,-0.02413000000000043,-43.02719999999999,99.3,-0.02256999999999998,-0.04670000000000041,41.5888,-1.4383999999999943,0,0,0,0,1,282:FRAME_rest.png,0.0,0.0,0.0,2.0752,3.05176,10.6812,
2020-05-10 21:33:35 +0900,32.2,-0.013130000000000308,-43.02719999999999,99.4,-0.016939999999999955,-0.030070000000000263,41.5888,-1.4383999999999943,0,0,0,0,1,282:FRAME_rest.png,0.0,0.0,0.0,1.52588,0.793457,6.95801,
2020-05-10 21:33:35 +0900,32.300000000000004,-0.013130000000000308,-44.142999999999994,99.7,-0.016939999999999955,-0.030070000000000263,41.5888,-2.5541999999999945,0,0,0,0,1,282:FRAME_rest.png,0.0,0.0,0.0,-0.427246,-2.01416,-5.31006,
2020-05-10 21:33:35 +0900,32.4,-0.021310000000000606,-44.142999999999994,99.9,-0.0253899999999998,-0.04670000000000041,41.5888,-2.5541999999999945,0,0,0,0,1,282:FRAME_rest.png,0.0,0.0,0.0,-0.0610352,-2.92969,-14.3433,
2020-05-10 21:33:35 +0900,32.5,-0.037550000000000416,-44.142999999999994,100.0,-0.04223999999999961,-0.07979000000000003,41.5888,-2.5541999999999945,0,0,0,0,1,282:FRAME_rest.png,0.0,0.0,0.0,-3.2959,-2.56348,-15.1367,
2020-05-10 21:33:35 +0900,32.6,-0.024630000000000152,-44.142999999999994,99.9,-0.0253899999999998,-0.05001999999999995,41.5888,-2.5541999999999945,0,0,0,0,1,282:FRAME_rest.png,0.0,0.0,0.0,-2.62451,-1.95312,-7.62939,
2020-05-10 21:33:35 +0900,32.7,-0.0005200000000007421,-43.02719999999999,99.8,-0.002829999999999444,-0.003350000000000186,41.5888,-1.4383999999999943,0,0,0,0,1,282:FRAME_rest.png,0.0,0.0,0.0,-1.70898,-0.610352,0.732422,
2020-05-10 21:33:35 +0900,32.800000000000004,0.0005199999999989657,-43.02719999999999,99.8,0.0028300000000003322,0.003349999999999298,41.5888,-1.4383999999999943,0,0,0,0,1,282:FRAME_rest.png,0.0,0.0,0.0,-0.671387,0.0,8.91113,
2020-05-10 21:33:35 +0900,32.9,0.01111999999999913,-41.5888,99.9,0.0056600000000006645,0.016779999999999795,41.5888,0.0,0,0,0,0,1,282:FRAME_rest.png,0.0,0.0,0.0,1.40381,0.732422,12.3901,
2020-05-10 21:33:36 +0900,33.0,0.013419999999999987,-43.02719999999999,100.0,0.0,0.013419999999999987,41.5888,-1.4383999999999943,0,0,0,0,1,282:FRAME_rest.png,0.0,0.0,0.0,2.13623,1.15967,12.9395,
2020-05-10 21:33:36 +0900,33.1,0.012349999999999639,-41.5888,100.2,-0.005650000000000155,0.006699999999999484,41.5888,0.0,0,0,0,0,1,282:FRAME_rest.png,0.0,0.0,0.0,2.38037,0.366211,7.08008,
2020-05-10 21:33:36 +0900,33.2,0.04084999999999894,-43.02719999999999,100.3,0.019840000000000302,0.060689999999999245,41.5888,-1.4383999999999943,0,0,0,0,1,282:FRAME_rest.png,0.0,0.0,0.0,1.89209,-1.09863,-4.82178,
2020-05-10 21:33:36 +0900,33.300000000000004,0.04874999999999918,-44.142999999999994,100.5,0.02552000000000021,0.07426999999999939,41.5888,-2.5541999999999945,0,0,0,0,1,282:FRAME_rest.png,0.0,0.0,0.0,-1.2207,-2.62451,-9.94873,
2020-05-10 21:33:36 +0900,33.4,0.03744999999999976,-44.142999999999994,100.4,0.019840000000000302,0.05729000000000006,41.5888,-2.5541999999999945,0,0,0,0,1,282:FRAME_rest.png,0.0,0.0,0.0,-0.549316,-1.83105,-7.32422,
2020-05-10 21:33:36 +0900,33.5,0.02567999999999948,-44.142999999999994,100.6,0.01132000000000044,0.03699999999999992,41.5888,-2.5541999999999945,0,0,0,0,1,282:FRAME_rest.png,0.0,0.0,0.0,0.427246,-0.0610352,-1.64795,
2020-05-10 21:33:36 +0900,33.6,0.012889999999998736,-45.05459999999999,100.4,-0.002829999999999444,0.010059999999999292,41.5888,-3.4657999999999944,0,0,0,0,1,282:FRAME_rest.png,0.0,0.0,0.0,-2.01416,0.244141,0.793457,
2020-05-10 21:33:36 +0900,33.7,0.03133999999999926,-44.142999999999994,100.5,0.0056600000000006645,0.03699999999999992,41.5888,-2.5541999999999945,0,0,0,0,1,282:FRAME_rest.png,0.0,0.0,0.0,1.46484,1.95312,7.8125,
2020-05-10 21:33:36 +0900,33.800000000000004,0.06807999999999925,-43.02719999999999,100.7,0.036900000000000155,0.10497999999999941,41.5888,-1.4383999999999943,0,0,0,0,1,282:FRAME_rest.png,0.0,0.0,0.0,0.610352,1.70898,11.7798,
2020-05-10 21:33:36 +0900,33.9,0.07951999999999959,-43.02719999999999,100.8,0.04260000000000019,0.12211999999999978,41.5888,-1.4383999999999943,0,0,0,0,1,282:FRAME_rest.png,0.0,0.0,0.0,1.28174,1.15967,7.44629,
2020-05-10 21:33:37 +0900,34.0,0.07893999999999934,-43.02719999999999,100.7,0.03975000000000062,0.11868999999999996,41.5888,-1.4383999999999943,0,0,0,0,1,282:FRAME_rest.png,0.0,0.0,0.0,1.15967,-1.0376,0.793457,
2020-05-10 21:33:37 +0900,34.1,0.06977999999999973,-43.02719999999999,100.6,0.028360000000000163,0.0981399999999999,41.5888,-1.4383999999999943,0,0,0,0,1,282:FRAME_rest.png,0.0,0.0,0.0,-0.549316,-2.86865,-6.5918,
2020-05-10 21:33:37 +0900,34.2,0.05275999999999925,-43.02719999999999,100.7,0.01132000000000044,0.06407999999999969,41.5888,-1.4383999999999943,0,0,0,0,1,282:FRAME_rest.png,0.0,0.0,0.0,-2.0752,-3.96729,-11.1694,
2020-05-10 21:33:37 +0900,34.300000000000004,0.06635999999999953,-43.02719999999999,100.6,0.028360000000000163,0.0947199999999997,41.5888,-1.4383999999999943,0,0,0,0,1,282:FRAME_rest.png,0.0,0.0,0.0,-0.305176,-2.19727,-6.7749,
2020-05-10 21:33:37 +0900,34.4,0.07951999999999959,-44.142999999999994,100.7,0.04260000000000019,0.12211999999999978,41.5888,-2.5541999999999945,0,0,0,0,1,282:FRAME_rest.png,0.0,0.0,0.0,-2.50244,-1.52588,-0.183105,
2020-05-10 21:33:37 +0900,34.5,0.07550999999999863,-44.142999999999994,101.1,0.03975000000000062,0.11525999999999925,41.5888,-2.5541999999999945,0,0,0,0,1,282:FRAME_rest.png,0.0,0.0,0.0,0.0610352,-0.549316,6.04248,
2020-05-10 21:33:37 +0900,34.6,0.07951999999999959,-44.142999999999994,101.1,0.04260000000000019,0.12211999999999978,41.5888,-2.5541999999999945,0,0,0,0,1,282:FRAME_rest.png,0.0,0.0,0.0,0.305176,1.0376,10.8643,
2020-05-10 21:33:37 +0900,34.7,0.08120999999999867,-44.142999999999994,101.0,0.03405000000000058,0.11525999999999925,41.5888,-2.5541999999999945,0,0,0,0,1,282:FRAME_rest.png,0.0,0.0,0.0,0.305176,1.09863,11.2915,
2020-05-10 21:33:37 +0900,34.800000000000004,0.0880699999999992,-44.142999999999994,100.8,0.03405000000000058,0.12211999999999978,41.5888,-2.5541999999999945,0,0,0,0,1,282:FRAME_rest.png,0.0,0.0,0.0,1.0376,1.09863,8.17871,
2020-05-10 21:33:37 +0900,34.9,0.12457999999999902,-45.05459999999999,100.5,0.05974000000000057,0.1843199999999996,41.5888,-3.4657999999999944,0,0,0,0,1,282:FRAME_rest.png,0.0,0.0,0.0,-0.915527,-1.70898,-5.00488,
2020-05-10 21:33:38 +0900,35.0,0.13214999999999932,-43.02719999999999,100.4,0.06261000000000028,0.1947599999999996,41.5888,-1.4383999999999943,0,0,0,0,1,282:FRAME_rest.png,0.0,0.0,0.0,-1.46484,-4.27246,-16.2354,
2020-05-10 21:33:38 +0900,35.1,0.11640999999999924,-43.02719999999999,100.3,0.0540200000000004,0.17042999999999964,41.5888,-1.4383999999999943,0,0,0,0,1,282:FRAME_rest.png,0.0,0.0,0.0,-1.09863,-3.90625,-19.4092,
2020-05-10 21:33:38 +0900,35.2,0.10241999999999951,-41.5888,100.1,0.036900000000000155,0.13931999999999967,41.5888,0.0,0,0,0,0,1,282:FRAME_rest.png,0.0,0.0,0.0,-0.976562,-0.732422,-8.54492,
2020-05-10 21:33:38 +0900,35.300000000000004,0.07089999999999907,-41.5888,99.9,0.017000000000000348,0.08789999999999942,41.5888,0.0,0,0,0,0,1,282:FRAME_rest.png,0.0,0.0,0.0,-1.58691,-0.427246,-0.671387,
2020-05-10 21:33:38 +0900,35.4,0.07089999999999907,-41.5888,99.9,0.017000000000000348,0.08789999999999942,41.5888,0.0,0,0,0,0,1,282:FRAME_rest.png,0.0,0.0,0.0,0.0610352,0.671387,6.16455,
2020-05-10 21:33:38 +0900,35.5,0.09896999999999956,-43.02719999999999,100.0,0.036900000000000155,0.1358699999999997,41.5888,-1.4383999999999943,0,0,0,0,1,282:FRAME_rest.png,0.0,0.0,0.0,1.46484,1.64795,13.916,
2020-05-10 21:33:38 +0900,35.6,0.10241999999999951,-44.142999999999994,100.1,0.036900000000000155,0.13931999999999967,41.5888,-2.5541999999999945,0,0,0,0,1,282:FRAME_rest.png,0.0,0.0,0.0,1.83105,2.56348,16.2354,
2020-05-10 21:33:38 +0900,35.7,0.111559999999999,-45.05459999999999,100.1,0.031210000000000626,0.14276999999999962,41.5888,-3.4657999999999944,0,0,0,0,1,282:FRAME_rest.png,0.0,0.0,0.0,0.732422,2.31934,12.2681,
2020-05-10 21:33:38 +0900,35.800000000000004,0.10974999999999913,-44.142999999999994,100.1,0.022680000000000256,0.13242999999999938,41.5888,-2.5541999999999945,0,0,0,0,1,282:FRAME_rest.png,0.0,0.0,0.0,0.0610352,-0.488281,1.52588,
2020-05-10 21:33:38 +0900,35.9,0.09247999999999923,-44.142999999999994,99.8,0.0056600000000006645,0.0981399999999999,41.5888,-2.5541999999999945,0,0,0,0,1,282:FRAME_rest.png,0.0,0.0,0.0,-1.2207,-2.80762,-8.91113,
2020-05-10 21:33:39 +0900,36.0,0.10109999999999886,-44.142999999999994,99.6,0.014160000000000394,0.11525999999999925,41.5888,-2.5541999999999945,0,0,0,0,1,282:FRAME_rest.png,0.0,0.0,0.0,-1.83105,-4.21143,-14.7705,
2020-05-10 21:33:39 +0900,36.1,0.10511999999999944,-43.02719999999999,99.7,0.017000000000000348,0.12211999999999978,41.5888,-1.4383999999999943,0,0,0,0,1,282:FRAME_rest.png,0.0,0.0,0.0,-0.976562,-3.78418,-10.498,
2020-05-10 21:33:39 +0900,36.2,0.08847999999999967,-41.5888,99.7,0.0028300000000003322,0.09131,41.5888,0.0,0,0,0,0,1,282:FRAME_rest.png,0.0,0.0,0.0,-0.183105,-1.34277,-3.479,
2020-05-10 21:33:39 +0900,36.300000000000004,0.07311999999999941,-43.02719999999999,99.7,-0.005650000000000155,0.06746999999999925,41.5888,-1.4383999999999943,0,0,0,0,1,282:FRAME_rest.png,0.0,0.0,0.0,-0.366211,0.0,5.24902,
2020-05-10 21:33:39 +0900,36.4,0.06012999999999913,-41.5888,99.9,-0.019759999999999778,0.04036999999999935,41.5888,0.0,0,0,0,0,1,282:FRAME_rest.png,0.0,0.0,0.0,-0.549316,1.77002,11.7798,
2020-05-10 21:33:39 +0900,36.5,0.052819999999999645,-41.5888,99.9,-0.02256999999999998,0.030249999999999666,41.5888,0.0,0,0,0,0,1,282:FRAME_rest.png,0.0,0.0,0.0,-0.488281,3.78418,12.8784,
2020-05-10 21:33:39 +0900,36.6,0.09188999999999936,-43.02719999999999,100.4,0.0028300000000003322,0.0947199999999997,41.5888,-1.4383999999999943,0,0,0,0,1,282:FRAME_rest.png,0.0,0.0,0.0,0.12207,2.01416,10.376,
2020-05-10 21:33:39 +0900,36.7,0.10736999999999952,-44.142999999999994,100.1,0.01132000000000044,0.11868999999999996,41.5888,-2.5541999999999945,0,0,0,0,1,282:FRAME_rest.png,0.0,0.0,0.0,0.12207,2.01416,10.376,
2020-05-10 21:33:39 +0900,36.800000000000004,0.09931999999999874,-44.142999999999994,99.7,0.0056600000000006645,0.10497999999999941,41.5888,-2.5541999999999945,0,0,0,0,1,282:FRAME_rest.png,0.0,0.0,0.0,1.46484,-0.671387,-0.427246,
2020-05-10 21:33:39 +0900,36.9,0.08331999999999962,-44.142999999999994,99.2,-0.005650000000000155,0.07766999999999946,41.5888,-2.5541999999999945,0,0,0,0,1,282:FRAME_rest.png,0.0,0.0,0.0,-0.610352,-3.96729,-10.6201,
2020-05-10 21:33:40 +0900,37.0,0.05563999999999947,-44.142999999999994,99.2,-0.0253899999999998,0.030249999999999666,41.5888,-2.5541999999999945,0,0,0,0,1,282:FRAME_rest.png,0.0,0.0,0.0,-1.95312,-5.12695,-17.0898,
2020-05-10 21:33:40 +0900,37.1,0.040519999999999,-44.142999999999994,99.2,-0.03381999999999952,0.006699999999999484,41.5888,-2.5541999999999945,0,0,0,0,1,282:FRAME_rest.png,0.0,0.0,0.0,-1.52588,-3.84521,-12.085,
2020-05-10 21:33:40 +0900,37.2,0.057309999999999306,-43.02719999999999,99.0,-0.016939999999999955,0.04036999999999935,41.5888,-1.4383999999999943,0,0,0,0,1,282:FRAME_rest.png,0.0,0.0,0.0,-0.610352,-1.09863,-4.63867,
2020-05-10 21:33:40 +0900,37.300000000000004,0.05393999999999988,-43.02719999999999,98.9,-0.016939999999999955,0.03699999999999992,41.5888,-1.4383999999999943,0,0,0,0,1,282:FRAME_rest.png,0.0,0.0,0.0,0.183105,-0.732422,4.27246,
2020-05-10 21:33:40 +0900,37.4,0.04270999999999958,-43.02719999999999,98.7,-0.02256999999999998,0.020139999999999603,41.5888,-1.4383999999999943,0,0,0,0,1,282:FRAME_rest.png,0.0,0.0,0.0,0.976562,1.89209,12.7563,
2020-05-10 21:33:40 +0900,37.5,0.03489999999999949,-43.02719999999999,98.4,-0.028200000000000003,0.006699999999999484,41.5888,-1.4383999999999943,0,0,0,0,1,282:FRAME_rest.png,0.0,0.0,0.0,-0.610352,3.60107,16.3574,
2020-05-10 21:33:40 +0900,37.6,0.0255099999999997,-43.02719999999999,98.3,-0.04223999999999961,-0.01672999999999991,41.5888,-1.4383999999999943,0,0,0,0,1,282:FRAME_rest.png,0.0,0.0,0.0,-0.305176,2.80762,13.7329,
2020-05-10 21:33:40 +0900,37.7,0.03218999999999905,-43.02719999999999,98.2,-0.04223999999999961,-0.010050000000000558,41.5888,-1.4383999999999943,0,0,0,0,1,282:FRAME_rest.png,0.0,0.0,0.0,2.13623,0.793457,4.5166,
2020-05-10 21:33:40 +0900,37.800000000000004,0.05170999999999992,-44.142999999999994,98.2,-0.028200000000000003,0.02350999999999992,41.5888,-2.5541999999999945,0,0,0,0,1,282:FRAME_rest.png,0.0,0.0,0.0,0.183105,-2.2583,-8.23975,
2020-05-10 21:33:40 +0900,37.9,0.03381999999999952,-44.142999999999994,98.5,-0.03381999999999952,0.0,41.5888,-2.5541999999999945,0,0,0,0,1,282:FRAME_rest.png,0.0,0.0,0.0,-1.15967,-3.479,-13.2446,
2020-05-10 21:33:41 +0900,38.0,0.01777999999999924,-45.05459999999999,98.6,-0.047849999999999504,-0.030070000000000263,41.5888,-3.4657999999999944,0,0,0,0,1,282:FRAME_rest.png,0.0,0.0,0.0,-1.28174,-3.05176,-8.8501,
2020-05-10 21:33:41 +0900,38.1,-0.001440000000000552,-44.142999999999994,98.7,-0.06182999999999961,-0.06327000000000016,41.5888,-2.5541999999999945,0,0,0,0,1,282:FRAME_rest.png,0.0,0.0,0.0,1.52588,-1.09863,-5.24902,
2020-05-10 21:33:41 +0900,38.2,-0.023760000000000225,-44.142999999999994,98.9,-0.07577999999999996,-0.09954000000000018,41.5888,-2.5541999999999945,0,0,0,0,1,282:FRAME_rest.png,0.0,0.0,0.0,-0.732422,-1.89209,3.41797,
2020-05-10 21:33:41 +0900,38.300000000000004,-0.009070000000001244,-44.142999999999994,99.0,-0.06741999999999937,-0.07649000000000061,41.5888,-2.5541999999999945,0,0,0,0,1,282:FRAME_rest.png,0.0,0.0,0.0,0.671387,0.610352,8.54492,
2020-05-10 21:33:41 +0900,38.400000000000006,0.01497999999999955,-43.02719999999999,99.0,-0.04504999999999981,-0.030070000000000263,41.5888,-1.4383999999999943,0,0,0,0,1,282:FRAME_rest.png,0.0,0.0,0.0,-0.305176,1.2207,9.94873,
2020-05-10 21:33:41 +0900,38.5,0.021109999999999296,-41.5888,98.9,-0.047849999999999504,-0.026740000000000208,41.5888,0.0,0,0,0,0,1,282:FRAME_rest.png,0.0,0.0,0.0,-0.12207,1.58691,7.50732,
2020-05-10 21:33:41 +0900,38.6,0.017249999999999766,-41.5888,98.8,-0.050650000000000084,-0.03340000000000032,41.5888,0.0,0,0,0,0,1,282:FRAME_rest.png,0.0,0.0,0.0,-0.12207,-0.549316,0.0610352,
2020-05-10 21:33:41 +0900,38.7,0.004669999999999064,-43.02719999999999,98.8,-0.0646299999999993,-0.059960000000000235,41.5888,-1.4383999999999943,0,0,0,0,1,282:FRAME_rest.png,0.0,0.0,0.0,0.610352,-2.74658,-10.437,
2020-05-10 21:33:41 +0900,38.800000000000004,-0.021480000000000388,-43.02719999999999,98.8,-0.08134999999999959,-0.10282999999999998,41.5888,-1.4383999999999943,0,0,0,0,1,282:FRAME_rest.png,0.0,0.0,0.0,-1.40381,-3.78418,-13.2446,
2020-05-10 21:33:41 +0900,38.900000000000006,-0.016170000000000684,-44.142999999999994,98.9,-0.07020999999999944,-0.08638000000000012,41.5888,-2.5541999999999945,0,0,0,0,1,282:FRAME_rest.png,0.0,0.0,0.0,-0.732422,-2.38037,-9.27734,
2020-05-10 21:33:42 +0900,39.0,-0.016950000000000465,-44.142999999999994,98.9,-0.056239999999999846,-0.07319000000000031,41.5888,-2.5541999999999945,0,0,0,0,1,282:FRAME_rest.png,0.0,0.0,0.0,-0.915527,-0.183105,-1.46484,
2020-05-10 21:33:42 +0900,39.1,-0.02785000000000082,-44.142999999999994,98.9,-0.06182999999999961,-0.08968000000000043,41.5888,-2.5541999999999945,0,0,0,0,1,282:FRAME_rest.png,0.0,0.0,0.0,0.0610352,0.488281,6.28662,
2020-05-10 21:33:42 +0900,39.2,-0.034430000000000405,-44.142999999999994,98.6,-0.06182999999999961,-0.09626000000000001,41.5888,-2.5541999999999945,0,0,0,0,1,282:FRAME_rest.png,0.0,0.0,0.0,1.0376,1.70898,14.5874,
2020-05-10 21:33:42 +0900,39.300000000000004,-0.034910000000000885,-44.142999999999994,98.8,-0.0646299999999993,-0.09954000000000018,41.5888,-2.5541999999999945,0,0,0,0,1,282:FRAME_rest.png,0.0,0.0,0.0,1.77002,2.01416,16.1743,
2020-05-10 21:33:42 +0900,39.400000000000006,-0.028840000000000643,-44.142999999999994,98.8,-0.06741999999999937,-0.09626000000000001,41.5888,-2.5541999999999945,0,0,0,0,1,282:FRAME_rest.png,0.0,0.0,0.0,0.427246,2.0752,12.085,
2020-05-10 21:33:42 +0900,39.5,-0.00010000000000065512,-44.142999999999994,98.8,-0.03662999999999972,-0.03673000000000037,41.5888,-2.5541999999999945,0,0,0,0,1,282:FRAME_rest.png,0.0,0.0,0.0,-0.366211,0.488281,-0.671387,
2020-05-10 21:33:42 +0900,39.6,0.01746999999999943,-43.02719999999999,98.4,-0.014120000000000132,0.003349999999999298,41.5888,-1.4383999999999943,0,0,0,0,1,282:FRAME_rest.png,0.0,0.0,0.0,-1.89209,-3.05176,-10.6812,
2020-05-10 21:33:42 +0900,39.7,0.007949999999999235,-41.5888,98.6,-0.011299999999999422,-0.003350000000000186,41.5888,0.0,0,0,0,0,1,282:FRAME_rest.png,0.0,0.0,0.0,-1.15967,-4.02832,-18.8599,
2020-05-10 21:33:42 +0900,39.800000000000004,-0.00929000000000002,-43.02719999999999,98.9,-0.014120000000000132,-0.023410000000000153,41.5888,-1.4383999999999943,0,0,0,0,1,282:FRAME_rest.png,0.0,0.0,0.0,-0.854492,-3.17383,-16.1743,
2020-05-10 21:33:42 +0900,39.900000000000006,-0.03507000000000016,-41.5888,99.1,-0.028200000000000003,-0.06327000000000016,41.5888,0.0,0,0,0,0,1,282:FRAME_rest.png,0.0,0.0,0.0,-1.52588,-1.0376,-7.8125,
2020-05-10 21:33:43 +0900,40.0,-0.05305000000000071,-43.02719999999999,99.0,-0.03662999999999972,-0.08968000000000043,41.5888,-1.4383999999999943,0,0,0,0,1,282:FRAME_rest.png,0.0,0.0,0.0,-0.244141,0.793457,3.11279,
2020-05-10 21:33:43 +0900,40.1,-0.030570000000000874,-43.02719999999999,98.9,-0.002829999999999444,-0.03340000000000032,41.5888,-1.4383999999999943,0,0,0,0,1,282:FRAME_rest.png,0.0,0.0,0.0,1.09863,2.62451,13.9771,
2020-05-10 21:33:43 +0900,40.2,-0.00978000000000101,-44.142999999999994,98.9,0.019840000000000302,0.010059999999999292,41.5888,-2.5541999999999945,0,0,0,0,1,282:FRAME_rest.png,0.0,0.0,0.0,0.793457,2.62451,19.2261,
2020-05-10 21:33:43 +0900,40.300000000000004,0.002949999999999342,-45.05459999999999,98.9,0.03405000000000058,0.03699999999999992,41.5888,-3.4657999999999944,0,0,0,0,1,282:FRAME_rest.png,0.0,0.0,0.0,1.77002,4.02832,18.8599,
2020-05-10 21:33:43 +0900,40.400000000000006,0.01468999999999987,-44.142999999999994,98.7,0.04260000000000019,0.05729000000000006,41.5888,-2.5541999999999945,0,0,0,0,1,282:FRAME_rest.png,0.0,0.0,0.0,-0.793457,1.89209,9.0332,
2020-05-10 21:33:43 +0900,40.5,0.01700999999999908,-44.142999999999994,98.7,0.036900000000000155,0.053909999999999236,41.5888,-2.5541999999999945,0,0,0,0,1,282:FRAME_rest.png,0.0,0.0,0.0,2.19727,-2.86865,-9.27734,
2020-05-10 21:33:43 +0900,40.6,0.013089999999999158,-43.02719999999999,98.7,0.03405000000000058,0.04713999999999974,41.5888,-1.4383999999999943,0,0,0,0,1,282:FRAME_rest.png,0.0,0.0,0.0,0.732422,-5.31006,-19.5312,
2020-05-10 21:33:43 +0900,40.7,0.03497999999999912,-41.5888,98.6,0.05974000000000057,0.0947199999999997,41.5888,0.0,0,0,0,0,1,282:FRAME_rest.png,0.0,0.0,0.0,-1.95312,-6.04248,-22.2778,
2020-05-10 21:33:43 +0900,40.800000000000004,0.025289999999999146,-41.5888,98.6,0.06261000000000028,0.08789999999999942,41.5888,0.0,0,0,0,0,1,282:FRAME_rest.png,0.0,0.0,0.0,2.86865,-2.50244,-12.8174,
2020-05-10 21:33:43 +0900,40.900000000000006,0.010059999999999292,-41.5888,98.3,0.0540200000000004,0.06407999999999969,41.5888,0.0,0,0,0,0,1,282:FRAME_rest.png,0.0,0.0,0.0,-2.01416,0.854492,-2.31934,
2020-05-10 21:33:44 +0900,41.0,-0.005600000000000271,-43.02719999999999,98.1,0.04260000000000019,0.03699999999999992,41.5888,-1.4383999999999943,0,0,0,0,1,282:FRAME_rest.png,0.0,0.0,0.0,-2.38037,2.38037,9.76562,
2020-05-10 21:33:44 +0900,41.1,-0.02166000000000068,-43.02719999999999,97.9,0.028360000000000163,0.006699999999999484,41.5888,-1.4383999999999943,0,0,0,0,1,282:FRAME_rest.png,0.0,0.0,0.0,-0.305176,3.23486,21.1182,
2020-05-10 21:33:44 +0900,41.2,-0.0022300000000008424,-44.142999999999994,97.6,0.04260000000000019,0.04036999999999935,41.5888,-2.5541999999999945,0,0,0,0,1,282:FRAME_rest.png,0.0,0.0,0.0,-0.305176,3.23486,21.1182,
2020-05-10 21:33:44 +0900,41.300000000000004,0.03709999999999969,-44.142999999999994,97.5,0.08844999999999992,0.1255499999999996,41.5888,-2.5541999999999945,0,0,0,0,1,282:FRAME_rest.png,0.0,0.0,0.0,-1.77002,5.43213,23.9258,
2020-05-10 21:33:44 +0900,41.400000000000006,0.06409999999999894,-44.142999999999994,97.4,0.10286000000000062,0.16695999999999955,41.5888,-2.5541999999999945,0,0,0,0,1,282:FRAME_rest.png,0.0,0.0,0.0,-2.31934,2.50244,19.104,
2020-05-10 21:33:44 +0900,41.5,0.07278999999999947,-44.142999999999994,97.2,0.11153000000000013,0.1843199999999996,41.5888,-2.5541999999999945,0,0,0,0,1,282:FRAME_rest.png,0.0,0.0,0.0,4.94385,0.0,6.34766,
2020-05-10 21:33:44 +0900,41.6,0.07508999999999943,-44.142999999999994,97.1,0.10575000000000045,0.1808399999999999,41.5888,-2.5541999999999945,0,0,0,0,1,282:FRAME_rest.png,0.0,0.0,0.0,3.23486,-5.00488,-14.3433,
2020-05-10 21:33:44 +0900,41.7,0.060079999999999245,-44.142999999999994,96.9,0.08269000000000037,0.14276999999999962,41.5888,-2.5541999999999945,0,0,0,0,1,282:FRAME_rest.png,0.0,0.0,0.0,-4.5166,-6.95801,-31.3721,
2020-05-10 21:33:44 +0900,41.800000000000004,0.06582999999999917,-43.02719999999999,96.6,0.09421000000000035,0.16003999999999952,41.5888,-1.4383999999999943,0,0,0,0,1,282:FRAME_rest.png,0.0,0.0,0.0,-3.72314,-7.20215,-34.2407,
2020-05-10 21:33:44 +0900,41.900000000000006,0.07508999999999943,-41.5888,96.4,0.10575000000000045,0.1808399999999999,41.5888,0.0,0,0,0,0,1,282:FRAME_rest.png,0.0,0.0,0.0,-4.02832,-2.80762,-19.165,
2020-05-10 21:33:45 +0900,42.0,0.056029999999998914,-41.5888,96.2,0.09709000000000056,0.15311999999999948,41.5888,0.0,0,0,0,0,1,282:FRAME_rest.png,0.0,0.0,0.0,-3.84521,-0.244141,-5.31006,
2020-05-10 21:33:45 +0900,42.1,0.04054000000000002,-43.02719999999999,95.9,0.08844999999999992,0.12898999999999994,41.5888,-1.4383999999999943,0,0,0,0,1,282:FRAME_rest.png,0.0,0.0,0.0,-0.183105,0.732422,10.6812,
2020-05-10 21:33:45 +0900,42.2,0.02461000000000002,-43.02719999999999,95.9,0.07695000000000007,0.1015600000000001,41.5888,-1.4383999999999943,0,0,0,0,1,282:FRAME_rest.png,0.0,0.0,0.0,1.64795,0.366211,20.9351,
2020-05-10 21:33:45 +0900,42.300000000000004,0.026379999999999626,-44.142999999999994,95.5,0.06834000000000007,0.0947199999999997,41.5888,-2.5541999999999945,0,0,0,0,1,282:FRAME_rest.png,0.0,0.0,0.0,3.54004,2.2583,28.5645,
2020-05-10 21:33:45 +0900,42.400000000000006,0.06698999999999966,-44.142999999999994,95.2,0.09996999999999989,0.16695999999999955,41.5888,-2.5541999999999945,0,0,0,0,1,282:FRAME_rest.png,0.0,0.0,0.0,2.13623,3.17383,27.3438,
2020-05-10 21:33:45 +0900,42.5,0.09549999999999947,-44.142999999999994,94.9,0.12021000000000015,0.21570999999999962,41.5888,-2.5541999999999945,0,0,0,0,1,282:FRAME_rest.png,0.0,0.0,0.0,1.70898,1.95312,15.7471,
2020-05-10 21:33:45 +0900,42.6,0.09778999999999982,-44.142999999999994,94.7,0.11441999999999997,0.2122099999999998,41.5888,-2.5541999999999945,0,0,0,0,1,282:FRAME_rest.png,0.0,0.0,0.0,0.427246,-3.60107,-8.36182,
2020-05-10 21:33:45 +0900,42.7,0.09131,-45.05459999999999,94.5,0.09996999999999989,0.1912799999999999,41.5888,-3.4657999999999944,0,0,0,0,1,282:FRAME_rest.png,0.0,0.0,0.0,0.305176,-5.67627,-26.3672,
2020-05-10 21:33:45 +0900,42.800000000000004,0.06465999999999905,-43.02719999999999,94.2,0.07121000000000066,0.1358699999999997,41.5888,-1.4383999999999943,0,0,0,0,1,282:FRAME_rest.png,0.0,0.0,0.0,-3.41797,-3.90625,-33.3252,
2020-05-10 21:33:45 +0900,42.900000000000006,0.036729999999999485,-43.02719999999999,93.9,0.05116999999999994,0.08789999999999942,41.5888,-1.4383999999999943,0,0,0,0,1,282:FRAME_rest.png,0.0,0.0,0.0,-2.92969,-0.854492,-19.9585,
2020-05-10 21:33:46 +0900,43.0,0.04978999999999889,-43.02719999999999,93.7,0.06547000000000036,0.11525999999999925,41.5888,-1.4383999999999943,0,0,0,0,1,282:FRAME_rest.png,0.0,0.0,0.0,-2.92969,0.0610352,-4.63867,
2020-05-10 21:33:46 +0900,43.1,0.04921999999999915,-41.5888,93.7,0.06261000000000028,0.11182999999999943,41.5888,0.0,0,0,0,0,1,282:FRAME_rest.png,0.0,0.0,0.0,1.58691,1.34277,11.6577,
2020-05-10 21:33:46 +0900,43.2,0.041819999999999524,-41.5888,93.6,0.05974000000000057,0.1015600000000001,41.5888,0.0,0,0,0,0,1,282:FRAME_rest.png,0.0,0.0,0.0,2.92969,3.05176,20.3857,
2020-05-10 21:33:46 +0900,43.300000000000004,0.04809999999999892,-41.5888,93.3,0.056880000000000486,0.10497999999999941,41.5888,0.0,0,0,0,0,1,282:FRAME_rest.png,0.0,0.0,0.0,1.15967,6.89697,24.4141,
2020-05-10 21:33:46 +0900,43.400000000000006,0.045859999999999346,-43.02719999999999,93.3,0.04545000000000066,0.09131,41.5888,-1.4383999999999943,0,0,0,0,1,282:FRAME_rest.png,0.0,0.0,0.0,-3.41797,5.00488,23.6816,
2020-05-10 21:33:46 +0900,43.5,0.06065999999999949,-44.142999999999994,92.7,0.05116999999999994,0.11182999999999943,41.5888,-2.5541999999999945,0,0,0,0,1,282:FRAME_rest.png,0.0,0.0,0.0,3.2959,0.488281,11.4136,
2020-05-10 21:33:46 +0900,43.6,0.09287999999999919,-44.142999999999994,92.3,0.07408000000000037,0.16695999999999955,41.5888,-2.5541999999999945,0,0,0,0,1,282:FRAME_rest.png,0.0,0.0,0.0,4.69971,-4.82178,-5.06592,
2020-05-10 21:33:46 +0900,43.7,0.08419999999999916,-44.142999999999994,92.1,0.06547000000000036,0.14966999999999953,41.5888,-2.5541999999999945,0,0,0,0,1,282:FRAME_rest.png,0.0,0.0,0.0,-0.488281,-6.16455,-20.9351,
2020-05-10 21:33:46 +0900,43.800000000000004,0.060089999999999755,-44.142999999999994,91.8,0.04830999999999985,0.10839999999999961,41.5888,-2.5541999999999945,0,0,0,0,1,282:FRAME_rest.png,0.0,0.0,0.0,-3.17383,-4.57764,-22.9492,
2020-05-10 21:33:46 +0900,43.900000000000006,0.02783999999999942,-43.02719999999999,91.6,0.022680000000000256,0.050519999999999676,41.5888,-1.4383999999999943,0,0,0,0,1,282:FRAME_rest.png,0.0,0.0,0.0,-1.09863,-2.50244,-15.0757,
2020-05-10 21:33:47 +0900,44.0,-0.004910000000000636,-43.02719999999999,91.4,-0.008479999999999599,-0.013390000000000235,41.5888,-1.4383999999999943,0,0,0,0,1,282:FRAME_rest.png,0.0,0.0,0.0,-0.610352,0.549316,1.2207,
2020-05-10 21:33:47 +0900,44.1,-0.018020000000000813,-43.02719999999999,91.1,0.01132000000000044,-0.006700000000000372,41.5888,-1.4383999999999943,0,0,0,0,1,282:FRAME_rest.png,0.0,0.0,0.0,1.0376,1.34277,9.8877,
2020-05-10 21:33:47 +0900,44.2,-0.020400000000000418,-43.02719999999999,90.9,0.0540200000000004,0.03361999999999998,41.5888,-1.4383999999999943,0,0,0,0,1,282:FRAME_rest.png,0.0,0.0,0.0,1.95312,1.89209,16.0522,
2020-05-10 21:33:47 +0900,44.300000000000004,-0.011560000000001125,-43.02719999999999,90.6,0.06547000000000036,0.053909999999999236,41.5888,-1.4383999999999943,0,0,0,0,1,282:FRAME_rest.png,0.0,0.0,0.0,5.24902,3.11279,18.9209,
2020-05-10 21:33:47 +0900,44.400000000000006,-0.004260000000000375,-41.5888,90.2,0.06834000000000007,0.06407999999999969,41.5888,0.0,0,0,0,0,1,282:FRAME_rest.png,0.0,0.0,0.0,8.54492,0.305176,14.7095,
2020-05-10 21:33:47 +0900,44.5,-0.009220000000000894,-43.02719999999999,89.8,0.05974000000000057,0.050519999999999676,41.5888,-1.4383999999999943,0,0,0,0,1,282:FRAME_rest.png,0.0,0.0,0.0,3.84521,-2.31934,-0.671387,
2020-05-10 21:33:47 +0900,44.6,-0.029690000000001326,-44.142999999999994,89.7,0.03975000000000062,0.010059999999999292,41.5888,-2.5541999999999945,0,0,0,0,1,282:FRAME_rest.png,0.0,0.0,0.0,-4.15039,-6.04248,-17.5171,
2020-05-10 21:33:47 +0900,44.7,-0.021940000000000737,-44.142999999999994,89.7,0.04545000000000066,0.02350999999999992,41.5888,-2.5541999999999945,0,0,0,0,1,282:FRAME_rest.png,0.0,0.0,0.0,-0.244141,-8.17871,-22.2168,
2020-05-10 21:33:47 +0900,44.800000000000004,-0.01937000000000122,-44.142999999999994,89.5,0.05974000000000057,0.04036999999999935,41.5888,-2.5541999999999945,0,0,0,0,1,282:FRAME_rest.png,0.0,0.0,0.0,-0.976562,-5.43213,-8.97217,
2020-05-10 21:33:47 +0900,44.900000000000006,-0.04545000000000066,-45.05459999999999,89.6,0.04545000000000066,0.0,41.5888,-3.4657999999999944,0,0,0,0,1,282:FRAME_rest.png,0.0,0.0,0.0,1.09863,0.549316,3.2959,
2020-05-10 21:33:48 +0900,45.0,-0.05746000000000073,-44.142999999999994,89.7,0.03405000000000058,-0.023410000000000153,41.5888,-2.5541999999999945,0,0,0,0,1,282:FRAME_rest.png,0.0,0.0,0.0,-0.183105,1.58691,10.8032,
