NeU Anaritics: NX (C) NeU Corporation. 2020. All rights reserved
Data format version 1.0
Bluetooth Address,C0:84:40:37:5D:42
""
Device time,Headset time(sec),HbT change(left subtracted),HbT change(right subtracted),Estimated pulse rate,HbT change(left SD1cm),HbT change(left SD3cm),HbT change(right SD1cm),HbT change(right SD3cm),saturation(left SD1cm),saturation(left SD3cm),saturation(right SD1cm),saturation(right SD3cm),noise detection flag,Mark,Accerelo-X,Accerelo-Y,Accerelo-Z,Gyro-X,Gyro-Y,Gyro-Z,Button
2020-05-10 22:01:50 +0900,0.0,0.0,0.0,0.0,0.0,0.0,0.0,0.0,0,0,0,0,0,282:FRAME_rest.png,0.0,0.0,0.0,0.976562,0.305176,4.3335,
2020-05-10 22:01:50 +0900,0.1,-0.003790000000000404,0.007440000000000779,0.0,0.0,-0.003790000000000404,0.00585999999999931,0.01330000000000009,0,0,0,0,0,282:FRAME_rest.png,0.0,0.0,0.0,1.46484,0.976562,5.92041,
2020-05-10 22:01:50 +0900,0.2,0.021989999999998844,0.033660000000000245,0.0,0.03515000000000068,0.057139999999999525,0.07372999999999941,0.10738999999999965,0,0,0,0,0,282:FRAME_rest.png,0.0,0.0,0.0,1.34277,1.0376,6.65283,
2020-05-10 22:01:50 +0900,0.30000000000000004,0.022619999999999862,0.023629999999999818,0.0,0.0498700000000003,0.07249000000000017,0.026419999999999888,0.050049999999999706,0,0,0,0,0,282:FRAME_rest.png,0.0,0.0,0.0,2.56348,3.17383,5.12695,
2020-05-10 22:01:50 +0900,0.4,0.02055999999999969,0.0026100000000006673,0.0,0.055769999999999875,0.07632999999999956,0.9409699999999992,0.9435799999999999,0,0,0,0,1,282:FRAME_rest.png,0.0,0.0,0.0,2.56348,3.17383,5.12695,
2020-05-10 22:01:51 +0900,0.5,0.01760999999999946,-0.004319999999998991,0.0,0.058720000000000105,0.07632999999999956,0.16970999999999936,0.16539000000000037,0,0,0,0,0,282:FRAME_rest.png,0.0,0.0,0.0,2.92969,2.74658,2.80762,
2020-05-10 22:01:51 +0900,0.6000000000000001,0.0072699999999992215,-0.029629999999999157,0.0,0.0498700000000003,0.057139999999999525,5.927059999999999,5.89743,0,0,0,0,1,282:FRAME_rest.png,0.0,0.0,0.0,0.854492,0.915527,1.83105,
2020-05-10 22:01:51 +0900,0.7000000000000001,0.006389999999999674,-0.6293299999999995,0.0,0.04692000000000007,0.053309999999999746,-4.37344,-5.00277,0,0,0,0,1,282:FRAME_rest.png,0.0,0.0,0.0,-0.427246,0.427246,0.366211,
2020-05-10 22:01:51 +0900,0.8,0.02271999999999963,-8.676529999999993,0.0,0.08835000000000015,0.11106999999999978,37.21536,28.538830000000004,0,0,0,0,1,282:FRAME_rest.png,0.0,0.0,0.0,-1.64795,-1.15967,-3.17383,
2020-05-10 22:01:51 +0900,0.9,0.026080000000000325,-8.676529999999993,0.0,0.11216999999999988,0.1382500000000002,37.21536,28.538830000000004,0,0,0,0,1,282:FRAME_rest.png,0.0,0.0,0.0,-2.0752,-0.427246,-2.99072,
2020-05-10 22:01:51 +0900,1.0,0.02192999999999934,-7.560729999999992,0.0,0.12412000000000045,0.1460499999999998,37.21536,29.654630000000004,0,0,0,0,1,282:FRAME_rest.png,0.0,0.0,0.0,-0.793457,-1.52588,-0.0610352,
2020-05-10 22:01:51 +0900,1.1,0.02073999999999998,-7.560729999999992,0.0,0.13311000000000028,0.15385000000000026,37.21536,29.654630000000004,0,0,0,0,1,282:FRAME_rest.png,0.0,0.0,0.0,-0.915527,-0.488281,4.39453,
2020-05-10 22:01:51 +0900,1.2000000000000002,0.022829999999999018,-7.560729999999992,0.0,0.12712000000000057,0.14994999999999958,37.21536,29.654630000000004,0,0,0,0,1,282:FRAME_rest.png,0.0,0.0,0.0,-0.488281,0.732422,6.83594,
2020-05-10 22:01:51 +0900,1.3,0.022829999999999018,-7.560729999999992,0.0,0.12712000000000057,0.14994999999999958,37.21536,29.654630000000004,0,0,0,0,1,282:FRAME_rest.png,0.0,0.0,0.0,0.183105,1.46484,8.42285,
2020-05-10 22:01:51 +0900,1.4000000000000001,0.06243999999999961,-6.122329999999998,0.0,0.16619000000000028,0.2286299999999999,37.21536,31.09303,0,0,0,0,1,282:FRAME_rest.png,0.0,0.0,0.0,1.58691,1.34277,3.96729,
2020-05-10 22:01:51 +0900,1.5,0.0839799999999995,-6.122329999999998,0.0,0.19646000000000008,0.2804399999999996,37.21536,31.09303,0,0,0,0,1,282:FRAME_rest.png,0.0,0.0,0.0,1.58691,-0.610352,-1.2207,
2020-05-10 22:01:52 +0900,1.6,0.0859299999999994,-7.560729999999992,0.0,0.20253000000000032,0.2884599999999997,37.21536,29.654630000000004,0,0,0,0,1,282:FRAME_rest.png,0.0,0.0,0.0,1.95312,-0.366211,-4.08936,
2020-05-10 22:01:52 +0900,1.7000000000000002,0.07294999999999963,-7.560729999999992,0.0,0.19948999999999995,0.27243999999999957,37.21536,29.654630000000004,0,0,0,0,1,282:FRAME_rest.png,0.0,0.0,0.0,4.02832,-0.976562,-1.40381,
2020-05-10 22:01:52 +0900,1.8,0.06512000000000029,-7.560729999999992,0.0,0.18735999999999997,0.25248000000000026,37.21536,29.654630000000004,0,0,0,0,1,282:FRAME_rest.png,0.0,0.0,0.0,3.72314,-2.56348,1.58691,
2020-05-10 22:01:52 +0900,1.9000000000000001,0.047539999999999694,-8.676529999999993,0.0,0.16921000000000053,0.21675000000000022,37.21536,28.538830000000004,0,0,0,0,1,282:FRAME_rest.png,0.0,0.0,0.0,3.78418,-4.45557,4.57764,
2020-05-10 22:01:52 +0900,2.0,0.05696999999999974,-8.676529999999993,0.0,0.19948999999999995,0.2564599999999997,37.21536,28.538830000000004,0,0,0,0,1,282:FRAME_rest.png,0.0,0.0,0.0,5.18799,-7.44629,8.42285,
2020-05-10 22:01:52 +0900,2.1,0.07263999999999893,-7.560729999999992,0.0,0.22385000000000055,0.2964899999999995,37.21536,29.654630000000004,0,0,0,0,1,282:FRAME_rest.png,0.0,0.0,0.0,-0.549316,-6.22559,14.4653,
2020-05-10 22:01:52 +0900,2.2,0.07666999999999913,-8.676529999999993,0.0,0.22385000000000055,0.3005199999999997,37.21536,28.538830000000004,0,0,0,0,1,282:FRAME_rest.png,0.0,0.0,0.0,10.0098,6.40869,12.5122,
2020-05-10 22:01:52 +0900,2.3000000000000003,0.0837399999999997,-7.560729999999992,0.0,0.22080000000000055,0.30454000000000025,37.21536,29.654630000000004,0,0,0,0,1,282:FRAME_rest.png,0.0,0.0,0.0,10.6201,9.0332,0.12207,
2020-05-10 22:01:52 +0900,2.4000000000000004,0.08385999999999871,-6.122329999999998,0.0,0.2086200000000007,0.2924799999999994,37.21536,31.09303,0,0,0,0,1,282:FRAME_rest.png,0.0,0.0,0.0,12.7563,3.84521,-2.01416,
2020-05-10 22:01:53 +0900,2.5,0.0839799999999995,-6.122329999999998,0.0,0.19646000000000008,0.2804399999999996,37.21536,31.09303,0,0,0,0,1,282:FRAME_rest.png,0.0,0.0,0.0,5.31006,3.66211,-4.21143,
2020-05-10 22:01:53 +0900,2.6,0.12110999999999894,-6.122329999999998,0.0,0.22385000000000055,0.3449599999999995,37.21536,31.09303,0,0,0,0,1,282:FRAME_rest.png,0.0,0.0,0.0,-12.4512,0.244141,-19.4092,
2020-05-10 22:01:53 +0900,2.7,0.14862999999999893,-6.122329999999998,0.0,0.24527000000000054,0.3938999999999995,37.21536,31.09303,0,0,0,0,1,282:FRAME_rest.png,0.0,0.0,0.0,-19.3481,-6.53076,-17.2119,
2020-05-10 22:01:53 +0900,2.8000000000000003,0.13941999999999943,-7.560729999999992,0.0,0.24220000000000041,0.38161999999999985,37.21536,29.654630000000004,0,0,0,0,1,282:FRAME_rest.png,0.0,0.0,0.0,-14.5264,-3.05176,-11.0474,
2020-05-10 22:01:53 +0900,2.9000000000000004,0.1251699999999989,-7.560729999999992,0.0,0.22385000000000055,0.34901999999999944,37.21536,29.654630000000004,0,0,0,0,1,282:FRAME_rest.png,0.0,0.0,0.0,-7.08008,-3.2959,-2.19727,
2020-05-10 22:01:53 +0900,3.0,0.09199999999999964,-7.560729999999992,0.0,0.19646000000000008,0.2884599999999997,37.21536,29.654630000000004,0,0,0,0,1,282:FRAME_rest.png,0.0,0.0,0.0,-4.94385,-1.64795,-1.09863,
2020-05-10 22:01:53 +0900,3.1,0.048479999999999634,-7.560729999999992,0.0,0.17222999999999988,0.22070999999999952,37.21536,29.654630000000004,0,0,0,0,1,282:FRAME_rest.png,0.0,0.0,0.0,-2.74658,0.976562,3.72314,
2020-05-10 22:01:53 +0900,3.2,0.052029999999999355,-7.560729999999992,0.0,0.19646000000000008,0.24848999999999943,37.21536,29.654630000000004,0,0,0,0,1,282:FRAME_rest.png,0.0,0.0,0.0,0.488281,-1.0376,12.085,
2020-05-10 22:01:53 +0900,3.3000000000000003,0.07360999999999951,-8.676529999999993,0.0,0.22691000000000017,0.3005199999999997,37.21536,28.538830000000004,0,0,0,0,1,282:FRAME_rest.png,0.0,0.0,0.0,0.915527,-5.7373,19.7144,
2020-05-10 22:01:53 +0900,3.4000000000000004,0.07846999999999937,-7.560729999999992,0.0,0.24220000000000041,0.3206699999999998,37.21536,29.654630000000004,0,0,0,0,1,282:FRAME_rest.png,0.0,0.0,0.0,3.479,-6.22559,23.0103,
2020-05-10 22:01:54 +0900,3.5,0.09157999999999955,-7.560729999999992,0.0,0.24527000000000054,0.3368500000000001,37.21536,29.654630000000004,0,0,0,0,1,282:FRAME_rest.png,0.0,0.0,0.0,1.52588,-5.24902,20.5078,
2020-05-10 22:01:54 +0900,3.6,0.09771000000000019,-7.560729999999992,0.0,0.2391399999999999,0.3368500000000001,37.21536,29.654630000000004,0,0,0,0,1,282:FRAME_rest.png,0.0,0.0,0.0,-3.90625,-7.01904,9.39941,
2020-05-10 22:01:54 +0900,3.7,0.10085999999999906,-6.122329999999998,0.0,0.22385000000000055,0.3247099999999996,37.21536,31.09303,0,0,0,0,1,282:FRAME_rest.png,0.0,0.0,0.0,-8.17871,-9.82666,-3.96729,
2020-05-10 22:01:54 +0900,3.8000000000000003,0.11800999999999995,-6.122329999999998,0.0,0.2391399999999999,0.35714999999999986,37.21536,31.09303,0,0,0,0,1,282:FRAME_rest.png,0.0,0.0,0.0,-9.27734,-10.0708,-12.8784,
2020-05-10 22:01:54 +0900,3.9000000000000004,0.1312299999999995,-7.560729999999992,0.0,0.2667700000000002,0.3979999999999997,37.21536,29.654630000000004,0,0,0,0,1,282:FRAME_rest.png,0.0,0.0,0.0,-8.60596,-10.2539,-13.855,
2020-05-10 22:01:54 +0900,4.0,0.1138300000000001,-7.560729999999992,0.0,0.26370000000000005,0.37753000000000014,37.21536,29.654630000000004,0,0,0,0,1,282:FRAME_rest.png,0.0,0.0,0.0,-7.50732,-10.437,-9.15527,
2020-05-10 22:01:54 +0900,4.1000000000000005,0.08949999999999925,-7.560729999999992,0.0,0.2514000000000003,0.34089999999999954,37.21536,29.654630000000004,0,0,0,0,1,282:FRAME_rest.png,0.0,0.0,0.0,-5.7373,-12.8784,0.610352,
2020-05-10 22:01:54 +0900,4.2,0.05734999999999957,-8.676529999999993,0.0,0.2391399999999999,0.2964899999999995,37.21536,28.538830000000004,0,0,0,0,1,282:FRAME_rest.png,0.0,0.0,0.0,-0.0610352,-12.5122,8.48389,
2020-05-10 22:01:54 +0900,4.3,0.04668999999999901,-8.676529999999993,0.0,0.21775000000000055,0.26443999999999956,37.21536,28.538830000000004,0,0,0,0,1,282:FRAME_rest.png,0.0,0.0,0.0,6.10352,-9.33838,14.5874,
2020-05-10 22:01:54 +0900,4.4,0.059459999999998736,-8.676529999999993,0.0,0.23302000000000067,0.2924799999999994,37.21536,28.538830000000004,0,0,0,0,1,282:FRAME_rest.png,0.0,0.0,0.0,10.0098,-8.8501,14.7705,
2020-05-10 22:01:55 +0900,4.5,0.1025999999999998,-7.560729999999992,0.0,0.2667700000000002,0.36937,37.21536,29.654630000000004,0,0,0,0,1,282:FRAME_rest.png,0.0,0.0,0.0,7.69043,-6.34766,12.7563,
2020-05-10 22:01:55 +0900,4.6000000000000005,0.11277999999999899,-7.560729999999992,0.0,0.27293000000000056,0.38570999999999955,37.21536,29.654630000000004,0,0,0,0,1,282:FRAME_rest.png,0.0,0.0,0.0,2.74658,-0.12207,8.48389,
2020-05-10 22:01:55 +0900,4.7,0.11589999999999989,-6.122329999999998,0.0,0.25755000000000017,0.37345000000000006,37.21536,31.09303,0,0,0,0,1,282:FRAME_rest.png,0.0,0.0,0.0,4.08936,-0.793457,-4.08936,
2020-05-10 22:01:55 +0900,4.800000000000001,0.09878999999999927,-6.122329999999998,0.0,0.22996000000000016,0.32874999999999943,37.21536,31.09303,0,0,0,0,1,282:FRAME_rest.png,0.0,0.0,0.0,2.50244,-4.69971,-8.54492,
2020-05-10 22:01:55 +0900,4.9,0.05905999999999967,-6.122329999999998,0.0,0.1934200000000006,0.25248000000000026,37.21536,31.09303,0,0,0,0,1,282:FRAME_rest.png,0.0,0.0,0.0,0.427246,-2.99072,-2.92969,
2020-05-10 22:01:55 +0900,5.0,0.024779999999999802,-6.122329999999998,0.0,0.17222999999999988,0.19700999999999969,37.21536,31.09303,0,0,0,0,1,282:FRAME_rest.png,0.0,0.0,0.0,1.64795,-3.54004,3.35693,
2020-05-10 22:01:55 +0900,5.1000000000000005,0.02424999999999944,-7.560729999999992,0.0,0.19646000000000008,0.22070999999999952,37.21536,29.654630000000004,0,0,0,0,1,282:FRAME_rest.png,0.0,0.0,0.0,1.64795,-3.54004,3.35693,
2020-05-10 22:01:55 +0900,5.2,0.017260000000000275,-7.560729999999992,0.0,0.19948999999999995,0.21675000000000022,37.21536,29.654630000000004,0,0,0,0,1,282:FRAME_rest.png,0.0,0.0,0.0,-0.549316,-2.13623,11.1084,
2020-05-10 22:01:55 +0900,5.300000000000001,0.01267999999999958,-8.676529999999993,0.0,0.1843300000000001,0.19700999999999969,37.21536,28.538830000000004,0,0,0,0,1,282:FRAME_rest.png,0.0,0.0,0.0,2.13623,-0.854492,16.2964,
2020-05-10 22:01:55 +0900,5.4,0.005119999999999791,-8.676529999999993,0.0,0.17222999999999988,0.17734999999999967,37.21536,28.538830000000004,0,0,0,0,1,282:FRAME_rest.png,0.0,0.0,0.0,5.37109,-0.305176,20.813,
2020-05-10 22:01:56 +0900,5.5,-0.00419000000000036,-8.676529999999993,0.0,0.15413999999999994,0.14994999999999958,37.21536,28.538830000000004,0,0,0,0,1,282:FRAME_rest.png,0.0,0.0,0.0,5.5542,-1.15967,20.813,
2020-05-10 22:01:56 +0900,5.6000000000000005,-0.009530000000000705,-7.560729999999992,0.0,0.1361100000000004,0.1265799999999997,37.21536,29.654630000000004,0,0,0,0,1,282:FRAME_rest.png,0.0,0.0,0.0,8.36182,-0.976562,7.69043,
2020-05-10 22:01:56 +0900,5.7,0.007530000000000037,-7.560729999999992,0.0,0.15413999999999994,0.16166999999999998,37.21536,29.654630000000004,0,0,0,0,1,282:FRAME_rest.png,0.0,0.0,0.0,3.17383,-1.0376,-4.57764,
2020-05-10 22:01:56 +0900,5.800000000000001,0.0036199999999997345,-7.560729999999992,0.0,0.15413999999999994,0.15775999999999968,37.21536,29.654630000000004,0,0,0,0,1,282:FRAME_rest.png,0.0,0.0,0.0,-0.0610352,0.854492,-10.376,
2020-05-10 22:01:56 +0900,5.9,-0.028910000000000657,-6.122329999999998,0.0,0.1361100000000004,0.10719999999999974,37.21536,31.09303,0,0,0,0,1,282:FRAME_rest.png,0.0,0.0,0.0,-2.62451,2.0752,-6.95801,
2020-05-10 22:01:56 +0900,6.0,-0.057170000000000165,-6.122329999999998,0.0,0.11814000000000036,0.06097000000000019,37.21536,31.09303,0,0,0,0,1,282:FRAME_rest.png,0.0,0.0,0.0,-2.38037,-0.12207,-3.78418,
2020-05-10 22:01:56 +0900,6.1000000000000005,-0.09726999999999997,-7.560729999999992,0.0,0.09726999999999997,0.0,37.21536,29.654630000000004,0,0,0,0,1,282:FRAME_rest.png,0.0,0.0,0.0,-3.05176,-0.549316,4.3335,
2020-05-10 22:01:56 +0900,6.2,-0.12173000000000034,-7.560729999999992,0.0,0.0764800000000001,-0.045250000000000234,37.21536,29.654630000000004,0,0,0,0,1,282:FRAME_rest.png,0.0,0.0,0.0,-2.0752,0.793457,11.6577,
2020-05-10 22:01:56 +0900,6.300000000000001,-0.10942000000000007,-7.560729999999992,0.0,0.09428999999999998,-0.015130000000000088,37.21536,29.654630000000004,0,0,0,0,1,282:FRAME_rest.png,0.0,0.0,0.0,2.80762,0.305176,13.4888,
2020-05-10 22:01:56 +0900,6.4,-0.09156000000000031,-8.676529999999993,0.0,0.11814000000000036,0.026580000000000048,37.21536,28.538830000000004,0,0,0,0,1,282:FRAME_rest.png,0.0,0.0,0.0,4.76074,2.31934,13.916,
2020-05-10 22:01:57 +0900,6.5,-0.09021000000000079,-8.676529999999993,0.0,0.10918000000000028,0.018969999999999487,37.21536,28.538830000000004,0,0,0,0,1,282:FRAME_rest.png,0.0,0.0,0.0,3.60107,1.34277,9.64355,
2020-05-10 22:01:57 +0900,6.6000000000000005,-0.10564000000000018,-8.676529999999993,0.0,0.09428999999999998,-0.011350000000000193,37.21536,28.538830000000004,0,0,0,0,1,282:FRAME_rest.png,0.0,0.0,0.0,1.34277,-1.70898,-0.793457,
2020-05-10 22:01:57 +0900,6.7,-0.1300100000000004,-7.560729999999992,0.0,0.07351000000000063,-0.05649999999999977,37.21536,29.654630000000004,0,0,0,0,1,282:FRAME_rest.png,0.0,0.0,0.0,-3.41797,-0.427246,-12.3291,
2020-05-10 22:01:57 +0900,6.800000000000001,-0.1711400000000003,-7.560729999999992,0.0,0.04398000000000035,-0.12715999999999994,37.21536,29.654630000000004,0,0,0,0,1,282:FRAME_rest.png,0.0,0.0,0.0,-2.99072,-0.915527,-9.70459,
2020-05-10 22:01:57 +0900,6.9,-0.18663000000000096,-6.122329999999998,0.0,0.04104000000000063,-0.14559000000000033,37.21536,31.09303,0,0,0,0,1,282:FRAME_rest.png,0.0,0.0,0.0,-3.2959,-1.0376,0.305176,
2020-05-10 22:01:57 +0900,7.0,-0.18588000000000005,-6.122329999999998,0.0,0.058720000000000105,-0.12715999999999994,37.21536,31.09303,0,0,0,0,1,282:FRAME_rest.png,0.0,0.0,0.0,-3.479,-0.305176,5.49316,
2020-05-10 22:01:57 +0900,7.1000000000000005,-0.20799000000000056,-6.122329999999998,0.0,0.058720000000000105,-0.14927000000000046,37.21536,31.09303,0,0,0,0,1,282:FRAME_rest.png,0.0,0.0,0.0,-1.77002,0.244141,8.48389,
2020-05-10 22:01:57 +0900,7.2,-0.2168600000000005,-6.122329999999998,0.0,0.06759000000000004,-0.14927000000000046,37.21536,31.09303,0,0,0,0,1,282:FRAME_rest.png,0.0,0.0,0.0,-0.488281,0.793457,13.4888,
2020-05-10 22:01:57 +0900,7.300000000000001,-0.2117400000000007,-6.122329999999998,0.0,0.07351000000000063,-0.13823000000000008,37.21536,31.09303,0,0,0,0,1,282:FRAME_rest.png,0.0,0.0,0.0,1.70898,0.244141,12.207,
2020-05-10 22:01:57 +0900,7.4,-0.1991700000000005,-7.560729999999992,0.0,0.06463000000000019,-0.13454000000000033,37.21536,29.654630000000004,0,0,0,0,1,282:FRAME_rest.png,0.0,0.0,0.0,0.610352,-0.0610352,1.46484,
2020-05-10 22:01:58 +0900,7.5,-0.1747500000000004,-7.560729999999992,0.0,0.07351000000000063,-0.10123999999999977,37.21536,29.654630000000004,0,0,0,0,1,282:FRAME_rest.png,0.0,0.0,0.0,-0.549316,0.976562,-11.5356,
2020-05-10 22:01:58 +0900,7.6000000000000005,-0.14925000000000033,-8.676529999999993,0.0,0.10024000000000033,-0.04901,37.21536,28.538830000000004,0,0,0,0,1,282:FRAME_rest.png,0.0,0.0,0.0,-11.2915,1.2207,-21.9116,
2020-05-10 22:01:58 +0900,7.7,-0.15683000000000025,-8.676529999999993,0.0,0.08537000000000017,-0.07146000000000008,37.21536,28.538830000000004,0,0,0,0,1,282:FRAME_rest.png,0.0,0.0,0.0,-20.9351,-0.305176,-39.5508,
2020-05-10 22:01:58 +0900,7.800000000000001,-0.17996000000000034,-8.676529999999993,0.0,0.06759000000000004,-0.1123700000000003,37.21536,28.538830000000004,0,0,0,0,1,282:FRAME_rest.png,0.0,0.0,0.0,-22.0337,0.244141,-34.9121,
2020-05-10 22:01:58 +0900,7.9,-0.20281000000000038,-7.560729999999992,0.0,0.0498700000000003,-0.15294000000000008,37.21536,29.654630000000004,0,0,0,0,1,282:FRAME_rest.png,0.0,0.0,0.0,-15.3198,-1.2207,-20.752,
2020-05-10 22:01:58 +0900,8.0,-0.2224700000000004,-7.560729999999992,0.0,0.029279999999999973,-0.19319000000000042,37.21536,29.654630000000004,0,0,0,0,1,282:FRAME_rest.png,0.0,0.0,0.0,-7.38525,-5.7373,2.68555,
2020-05-10 22:01:58 +0900,8.1,-0.21445999999999987,-7.560729999999992,0.0,0.03221000000000007,-0.1822499999999998,37.21536,29.654630000000004,0,0,0,0,1,282:FRAME_rest.png,0.0,0.0,0.0,-5.67627,-1.70898,11.1694,
2020-05-10 22:01:58 +0900,8.200000000000001,-0.1814499999999999,-6.122329999999998,0.0,0.06167999999999996,-0.11976999999999993,37.21536,31.09303,0,0,0,0,1,282:FRAME_rest.png,0.0,0.0,0.0,-3.90625,1.2207,12.6953,
2020-05-10 22:01:58 +0900,8.3,-0.17030000000000012,-6.122329999999998,0.0,0.0764800000000001,-0.09382000000000001,37.21536,31.09303,0,0,0,0,1,282:FRAME_rest.png,0.0,0.0,0.0,0.183105,-0.12207,6.16455,
2020-05-10 22:01:58 +0900,8.4,-0.15836000000000006,-7.560729999999992,0.0,0.07943999999999996,-0.0789200000000001,37.21536,29.654630000000004,0,0,0,0,1,282:FRAME_rest.png,0.0,0.0,0.0,-4.5166,-2.13623,4.27246,
2020-05-10 22:01:59 +0900,8.5,-0.16511999999999993,-7.560729999999992,90.4,0.06759000000000004,-0.0975299999999999,37.21536,29.654630000000004,0,0,0,0,1,282:FRAME_rest.png,0.0,0.0,0.0,-5.67627,0.549316,-6.28662,
2020-05-10 22:01:59 +0900,8.6,-0.18810000000000038,-7.560729999999992,90.4,0.0498700000000003,-0.13823000000000008,37.21536,29.654630000000004,0,0,0,0,1,282:FRAME_rest.png,0.0,0.0,0.0,-7.56836,1.83105,-17.5781,
2020-05-10 22:01:59 +0900,8.700000000000001,-0.18662000000000045,-7.560729999999992,90.1,0.055769999999999875,-0.13085000000000058,37.21536,29.654630000000004,0,0,0,0,1,282:FRAME_rest.png,0.0,0.0,0.0,-5.98145,-0.12207,-17.7002,
2020-05-10 22:01:59 +0900,8.8,-0.1770000000000005,-8.676529999999993,89.8,0.06463000000000019,-0.1123700000000003,37.21536,28.538830000000004,0,0,0,0,1,282:FRAME_rest.png,0.0,0.0,0.0,-10.498,0.0,-14.7095,
2020-05-10 22:01:59 +0900,8.9,-0.19326000000000043,-7.560729999999992,89.5,0.058720000000000105,-0.13454000000000033,37.21536,29.654630000000004,0,0,0,0,1,282:FRAME_rest.png,0.0,0.0,0.0,-8.97217,-1.64795,1.89209,
2020-05-10 22:01:59 +0900,9.0,-0.1910500000000006,-7.560729999999992,89.3,0.05282000000000053,-0.13823000000000008,37.21536,29.654630000000004,0,0,0,0,1,282:FRAME_rest.png,0.0,0.0,0.0,-6.22559,-1.09863,7.26318,
2020-05-10 22:01:59 +0900,9.1,-0.17777000000000065,-7.560729999999992,89.2,0.04692000000000007,-0.13085000000000058,37.21536,29.654630000000004,0,0,0,0,1,282:FRAME_rest.png,0.0,0.0,0.0,-2.74658,-1.70898,6.34766,
2020-05-10 22:01:59 +0900,9.200000000000001,-0.16451000000000082,-7.560729999999992,89.0,0.04104000000000063,-0.12347000000000019,37.21536,29.654630000000004,0,0,0,0,1,282:FRAME_rest.png,0.0,0.0,0.0,-3.17383,-2.56348,6.5918,
2020-05-10 22:01:59 +0900,9.3,-0.1339100000000002,-7.560729999999992,89.2,0.058720000000000105,-0.07519000000000009,37.21536,29.654630000000004,0,0,0,0,1,282:FRAME_rest.png,0.0,0.0,0.0,-6.16455,-0.915527,0.0,
2020-05-10 22:01:59 +0900,9.4,-0.12783999999999995,-7.560729999999992,89.2,0.06759000000000004,-0.060249999999999915,37.21536,29.654630000000004,0,0,0,0,1,282:FRAME_rest.png,0.0,0.0,0.0,-8.30078,1.95312,-15.2588,
2020-05-10 22:02:00 +0900,9.5,-0.13468999999999998,-7.560729999999992,89.5,0.055769999999999875,-0.0789200000000001,37.21536,29.654630000000004,0,0,0,0,1,282:FRAME_rest.png,0.0,0.0,0.0,-8.11768,2.01416,-21.9116,
2020-05-10 22:02:00 +0900,9.600000000000001,-0.1460000000000008,-7.560729999999992,89.1,0.04104000000000063,-0.10496000000000016,37.21536,29.654630000000004,0,0,0,0,1,282:FRAME_rest.png,0.0,0.0,0.0,-7.26318,-1.09863,-14.5874,
2020-05-10 22:02:00 +0900,9.700000000000001,-0.16463000000000072,-8.676529999999993,88.8,0.011690000000000644,-0.15294000000000008,37.21536,28.538830000000004,0,0,0,0,1,282:FRAME_rest.png,0.0,0.0,0.0,-3.41797,-2.50244,-3.60107,
2020-05-10 22:02:00 +0900,9.8,-0.1705400000000008,-8.676529999999993,88.4,0.0029200000000004778,-0.16762000000000032,37.21536,28.538830000000004,0,0,0,0,1,282:FRAME_rest.png,0.0,0.0,0.0,-3.41797,-2.50244,-3.60107,
2020-05-10 22:02:00 +0900,9.9,-0.14916000000000107,-7.560729999999992,87.8,0.014620000000000744,-0.13454000000000033,37.21536,29.654630000000004,0,0,0,0,1,282:FRAME_rest.png,0.0,0.0,0.0,-1.0376,-3.41797,4.63867,
2020-05-10 22:02:00 +0900,10.0,-0.1433100000000005,-7.560729999999992,87.4,0.008770000000000167,-0.13454000000000033,37.21536,29.654630000000004,0,0,0,0,1,282:FRAME_rest.png,0.0,0.0,0.0,2.38037,-5.92041,14.2212,
2020-05-10 22:02:00 +0900,10.100000000000001,-0.1374600000000008,-6.122329999999998,87.1,0.0029200000000004778,-0.13454000000000033,37.21536,31.09303,0,0,0,0,1,282:FRAME_rest.png,0.0,0.0,0.0,5.37109,-7.26318,13.9771,
2020-05-10 22:02:00 +0900,10.200000000000001,-0.13316000000000017,-7.560729999999992,86.7,-0.008750000000000036,-0.1419100000000002,37.21536,29.654630000000004,0,0,0,0,1,282:FRAME_rest.png,0.0,0.0,0.0,13.2446,-5.61523,10.7422,
2020-05-10 22:02:00 +0900,10.3,-0.1362300000000003,-7.560729999999992,86.2,-0.020389999999999908,-0.1566200000000002,37.21536,29.654630000000004,0,0,0,0,1,282:FRAME_rest.png,0.0,0.0,0.0,11.2305,-2.31934,5.43213,
2020-05-10 22:02:00 +0900,10.4,-0.11997000000000035,-6.122329999999998,85.8,-0.014569999999999972,-0.13454000000000033,37.21536,31.09303,0,0,0,0,1,282:FRAME_rest.png,0.0,0.0,0.0,6.04248,-0.549316,-4.94385,
2020-05-10 22:02:01 +0900,10.5,-0.1259800000000011,-6.122329999999998,85.8,-0.023289999999999367,-0.14927000000000046,37.21536,31.09303,0,0,0,0,1,282:FRAME_rest.png,0.0,0.0,0.0,0.12207,-0.183105,-6.89697,
2020-05-10 22:02:01 +0900,10.600000000000001,-0.15763000000000016,-6.122329999999998,85.8,-0.046479999999999855,-0.20411,37.21536,31.09303,0,0,0,0,1,282:FRAME_rest.png,0.0,0.0,0.0,-0.366211,-1.95312,-3.54004,
2020-05-10 22:02:01 +0900,10.700000000000001,-0.17655000000000065,-6.122329999999998,85.7,-0.06379999999999963,-0.24035000000000029,37.21536,31.09303,0,0,0,0,1,282:FRAME_rest.png,0.0,0.0,0.0,-0.915527,1.28174,-3.17383,
2020-05-10 22:02:01 +0900,10.8,-0.2102800000000009,-7.560729999999992,85.3,-0.08392999999999962,-0.2942100000000005,37.21536,29.654630000000004,0,0,0,0,1,282:FRAME_rest.png,0.0,0.0,0.0,3.35693,4.88281,2.01416,
2020-05-10 22:02:01 +0900,10.9,-0.24654000000000043,-8.676529999999993,85.1,-0.08679999999999932,-0.33333999999999975,37.21536,28.538830000000004,0,0,0,0,1,282:FRAME_rest.png,0.0,0.0,0.0,10.9253,7.01904,18.1274,
2020-05-10 22:02:01 +0900,11.0,-0.25735000000000063,-8.676529999999993,84.8,-0.0724399999999994,-0.32979,37.21536,28.538830000000004,0,0,0,0,1,282:FRAME_rest.png,0.0,0.0,0.0,20.0195,2.62451,30.4565,
2020-05-10 22:02:01 +0900,11.100000000000001,-0.2708599999999999,-8.676529999999993,84.6,-0.06956000000000007,-0.34041999999999994,37.21536,28.538830000000004,0,0,0,0,1,282:FRAME_rest.png,0.0,0.0,0.0,24.1699,2.50244,28.3203,
2020-05-10 22:02:01 +0900,11.200000000000001,-0.2666599999999999,-8.676529999999993,84.1,-0.06667999999999985,-0.33333999999999975,37.21536,28.538830000000004,0,0,0,0,1,282:FRAME_rest.png,0.0,0.0,0.0,17.334,-1.2207,13.0005,
2020-05-10 22:02:01 +0900,11.3,-0.25735000000000063,-7.560729999999992,83.7,-0.0724399999999994,-0.32979,37.21536,29.654630000000004,0,0,0,0,1,282:FRAME_rest.png,0.0,0.0,0.0,25.3906,0.793457,7.75146,
2020-05-10 22:02:01 +0900,11.4,-0.23959000000000064,-7.560729999999992,83.4,-0.0724399999999994,-0.31203000000000003,37.21536,29.654630000000004,0,0,0,0,1,282:FRAME_rest.png,0.0,0.0,0.0,45.7764,12.3291,20.2026,
2020-05-10 22:02:02 +0900,11.5,-0.19676000000000027,-4.095029999999994,82.9,-0.04359000000000002,-0.24035000000000029,37.21536,33.12033,0,0,0,0,1,282:FRAME_rest.png,0.0,0.0,0.0,43.8232,15.686,20.874,
2020-05-10 22:02:02 +0900,11.600000000000001,-0.17721000000000053,-6.122329999999998,82.5,-0.037799999999999834,-0.21501000000000037,37.21536,31.09303,0,0,0,0,1,282:FRAME_rest.png,0.0,0.0,0.0,28.5645,8.17871,-11.4136,
2020-05-10 22:02:02 +0900,11.700000000000001,-0.1859099999999998,-6.122329999999998,82.7,-0.04359000000000002,-0.22949999999999982,37.21536,31.09303,0,0,0,0,1,282:FRAME_rest.png,0.0,0.0,0.0,15.4419,7.69043,-29.1748,
2020-05-10 22:02:02 +0900,11.8,-0.2003200000000005,-7.560729999999992,82.5,-0.05804000000000009,-0.2583600000000006,37.21536,29.654630000000004,0,0,0,0,1,282:FRAME_rest.png,0.0,0.0,0.0,5.92041,8.66699,-25.5737,
2020-05-10 22:02:02 +0900,11.9,-0.2260200000000001,-7.560729999999992,82.5,-0.07531999999999961,-0.3013399999999997,37.21536,29.654630000000004,0,0,0,0,1,282:FRAME_rest.png,0.0,0.0,0.0,3.66211,0.0610352,-14.8315,
2020-05-10 22:02:02 +0900,12.0,-0.22326000000000068,-8.676529999999993,82.6,-0.06379999999999963,-0.2870600000000003,37.21536,28.538830000000004,0,0,0,0,1,282:FRAME_rest.png,0.0,0.0,0.0,0.976562,0.915527,-9.52148,
2020-05-10 22:02:02 +0900,12.100000000000001,-0.21977000000000046,-8.676529999999993,82.3,-0.04936999999999969,-0.26914000000000016,37.21536,28.538830000000004,0,0,0,0,1,282:FRAME_rest.png,0.0,0.0,0.0,2.86865,5.61523,2.62451,
2020-05-10 22:02:02 +0900,12.200000000000001,-0.21618000000000048,-8.676529999999993,82.2,-0.04936999999999969,-0.2655500000000002,37.21536,28.538830000000004,0,0,0,0,1,282:FRAME_rest.png,0.0,0.0,0.0,6.40869,10.498,13.0615,
2020-05-10 22:02:02 +0900,12.3,-0.20037000000000038,-8.676529999999993,82.0,-0.04359000000000002,-0.2439600000000004,37.21536,28.538830000000004,0,0,0,0,1,282:FRAME_rest.png,0.0,0.0,0.0,5.79834,11.4136,8.30078,
2020-05-10 22:02:02 +0900,12.4,-0.18301999999999996,-7.560729999999992,81.2,-0.046479999999999855,-0.22949999999999982,37.21536,29.654630000000004,0,0,0,0,1,282:FRAME_rest.png,0.0,0.0,0.0,3.05176,10.3149,6.83594,
2020-05-10 22:02:03 +0900,12.5,-0.14949000000000012,-7.560729999999992,80.1,-0.02909999999999968,-0.1785899999999998,37.21536,29.654630000000004,0,0,0,0,1,282:FRAME_rest.png,0.0,0.0,0.0,4.08936,9.46045,5.06592,
2020-05-10 22:02:03 +0900,12.600000000000001,-0.12424999999999997,-6.122329999999998,79.8,-0.002909999999999968,-0.12715999999999994,37.21536,31.09303,0,0,0,0,1,282:FRAME_rest.png,0.0,0.0,0.0,3.54004,2.50244,-13.0005,
2020-05-10 22:02:03 +0900,12.700000000000001,-0.13240000000000052,-6.122329999999998,79.2,-0.005829999999999558,-0.13823000000000008,37.21536,31.09303,0,0,0,0,1,282:FRAME_rest.png,0.0,0.0,0.0,-0.244141,-5.06592,-22.8882,
2020-05-10 22:02:03 +0900,12.8,-0.14937999999999985,-4.095029999999994,79.2,-0.014569999999999972,-0.16394999999999982,37.21536,33.12033,0,0,0,0,1,282:FRAME_rest.png,0.0,0.0,0.0,-1.83105,-3.72314,-18.1885,
2020-05-10 22:02:03 +0900,12.9,-0.17210999999999999,-6.122329999999998,79.3,-0.03200000000000003,-0.20411,37.21536,31.09303,0,0,0,0,1,282:FRAME_rest.png,0.0,0.0,0.0,2.99072,-4.15039,-6.10352,
2020-05-10 22:02:03 +0900,13.0,-0.17648000000000064,-7.560729999999992,79.2,-0.03489999999999949,-0.21138000000000012,37.21536,29.654630000000004,0,0,0,0,1,282:FRAME_rest.png,0.0,0.0,0.0,0.0,-2.56348,10.9253,
2020-05-10 22:02:03 +0900,13.100000000000001,-0.14268000000000036,-8.676529999999993,79.4,-0.002909999999999968,-0.14559000000000033,37.21536,28.538830000000004,0,0,0,0,1,282:FRAME_rest.png,0.0,0.0,0.0,-2.86865,2.99072,15.0757,
2020-05-10 22:02:03 +0900,13.200000000000001,-0.11958000000000091,-8.676529999999993,79.3,0.014620000000000744,-0.10496000000000016,37.21536,28.538830000000004,0,0,0,0,1,282:FRAME_rest.png,0.0,0.0,0.0,-0.854492,4.88281,18.3105,
2020-05-10 22:02:03 +0900,13.3,-0.09567000000000014,-8.676529999999993,79.3,0.020480000000000054,-0.07519000000000009,37.21536,28.538830000000004,0,0,0,0,1,282:FRAME_rest.png,0.0,0.0,0.0,3.90625,7.08008,12.207,
2020-05-10 22:02:03 +0900,13.4,-0.07242000000000015,-8.676529999999993,79.3,0.023410000000000153,-0.04901,37.21536,28.538830000000004,0,0,0,0,1,282:FRAME_rest.png,0.0,0.0,0.0,0.549316,4.82178,4.5166,
2020-05-10 22:02:04 +0900,13.5,-0.06280000000000019,-7.560729999999992,79.0,0.017549999999999955,-0.045250000000000234,37.21536,29.654630000000004,0,0,0,0,1,282:FRAME_rest.png,0.0,0.0,0.0,2.74658,1.09863,-7.75146,
2020-05-10 22:02:04 +0900,13.600000000000001,-0.03640000000000043,-6.122329999999998,78.7,0.04398000000000035,0.00757999999999992,37.21536,31.09303,0,0,0,0,1,282:FRAME_rest.png,0.0,0.0,0.0,10.5591,-8.60596,-28.7476,
2020-05-10 22:02:04 +0900,13.700000000000001,-0.02538000000000018,-6.122329999999998,78.6,0.055769999999999875,0.030389999999999695,37.21536,31.09303,0,0,0,0,1,282:FRAME_rest.png,0.0,0.0,0.0,12.3291,-13.7939,-25.7568,
2020-05-10 22:02:04 +0900,13.8,-0.03005000000000102,-4.095029999999994,78.7,0.05282000000000053,0.022769999999999513,37.21536,33.12033,0,0,0,0,1,282:FRAME_rest.png,0.0,0.0,0.0,7.20215,-11.2915,-15.686,
2020-05-10 22:02:04 +0900,13.9,-0.023290000000000255,-4.095029999999994,78.7,0.0498700000000003,0.026580000000000048,37.21536,33.12033,0,0,0,0,1,282:FRAME_rest.png,0.0,0.0,0.0,4.69971,-6.40869,-3.41797,
2020-05-10 22:02:04 +0900,14.0,-0.0050800000000004175,-6.122329999999998,78.6,0.04692000000000007,0.041839999999999655,37.21536,31.09303,0,0,0,0,1,282:FRAME_rest.png,0.0,0.0,0.0,3.05176,-1.64795,8.66699,
2020-05-10 22:02:04 +0900,14.100000000000001,0.03664999999999985,-7.560729999999992,79.4,0.07054999999999989,0.10719999999999974,37.21536,29.654630000000004,0,0,0,0,1,282:FRAME_rest.png,0.0,0.0,0.0,5.7373,4.39453,13.1836,
2020-05-10 22:02:04 +0900,14.200000000000001,0.07615000000000016,-7.560729999999992,79.7,0.09726999999999997,0.17342000000000013,37.21536,29.654630000000004,0,0,0,0,1,282:FRAME_rest.png,0.0,0.0,0.0,12.3291,3.72314,11.7798,
2020-05-10 22:02:04 +0900,14.3,0.06643999999999917,-8.676529999999993,79.6,0.09132000000000051,0.15775999999999968,37.21536,28.538830000000004,0,0,0,0,1,282:FRAME_rest.png,0.0,0.0,0.0,12.3291,3.72314,11.7798,
2020-05-10 22:02:04 +0900,14.4,0.043260000000000076,-9.588129999999992,79.5,0.07943999999999996,0.12270000000000003,37.21536,27.627230000000004,0,0,0,0,1,282:FRAME_rest.png,0.0,0.0,0.0,17.5171,-2.0752,6.5918,
2020-05-10 22:02:05 +0900,14.5,0.022350000000000314,-9.588129999999992,79.3,0.06167999999999996,0.08403000000000027,37.21536,27.627230000000004,0,0,0,0,1,282:FRAME_rest.png,0.0,0.0,0.0,29.9072,-8.36182,2.86865,
2020-05-10 22:02:05 +0900,14.600000000000001,0.011989999999999057,-8.676529999999993,79.0,0.05282000000000053,0.06480999999999959,37.21536,28.538830000000004,0,0,0,0,1,282:FRAME_rest.png,0.0,0.0,0.0,23.6816,-8.11768,2.50244,
2020-05-10 22:02:05 +0900,14.700000000000001,0.044169999999999376,-7.560729999999992,78.8,0.08241000000000032,0.1265799999999997,37.21536,29.654630000000004,0,0,0,0,1,282:FRAME_rest.png,0.0,0.0,0.0,8.23975,3.66211,10.7422,
2020-05-10 22:02:05 +0900,14.8,0.06831999999999994,-4.095029999999994,78.9,0.09726999999999997,0.1655899999999999,37.21536,33.12033,0,0,0,0,1,282:FRAME_rest.png,0.0,0.0,0.0,11.7798,8.72803,18.7378,
2020-05-10 22:02:05 +0900,14.9,0.08888999999999925,-4.095029999999994,78.6,0.10024000000000033,0.18912999999999958,37.21536,33.12033,0,0,0,0,1,282:FRAME_rest.png,0.0,0.0,0.0,15.0146,9.82666,16.2354,
2020-05-10 22:02:05 +0900,15.0,0.10762999999999945,-6.122329999999998,78.2,0.09726999999999997,0.20489999999999942,37.21536,31.09303,0,0,0,0,1,283:FRAME_グー.png,0.0,0.0,0.0,5.67627,7.56836,6.16455,
2020-05-10 22:02:05 +0900,15.100000000000001,0.09885999999999928,-6.122329999999998,78.0,0.08241000000000032,0.1812699999999996,37.21536,31.09303,0,0,0,0,1,283:FRAME_グー.png,0.0,0.0,0.0,1.83105,3.41797,1.46484,
2020-05-10 22:02:05 +0900,15.200000000000001,0.10174999999999912,-6.122329999999998,77.6,0.09132000000000051,0.19306999999999963,37.21536,31.09303,0,0,0,0,1,283:FRAME_グー.png,0.0,0.0,0.0,-3.84521,-5.00488,-8.54492,
2020-05-10 22:02:05 +0900,15.3,0.0996599999999992,-6.122329999999998,77.4,0.10918000000000028,0.20883999999999947,37.21536,31.09303,0,0,0,0,1,283:FRAME_グー.png,0.0,0.0,0.0,-12.146,-16.1743,-17.6392,
2020-05-10 22:02:05 +0900,15.4,0.08686999999999934,-7.560729999999992,77.9,0.1062000000000003,0.19306999999999963,37.21536,29.654630000000004,0,0,0,0,1,283:FRAME_グー.png,0.0,0.0,0.0,-15.9302,-19.6533,-18.2495,
2020-05-10 22:02:06 +0900,15.5,0.08388999999999935,-8.676529999999993,78.2,0.10918000000000028,0.19306999999999963,37.21536,28.538830000000004,0,0,0,0,1,283:FRAME_グー.png,0.0,0.0,0.0,-15.625,-12.8784,-6.89697,
2020-05-10 22:02:06 +0900,15.600000000000001,0.0996599999999992,-8.676529999999993,78.6,0.10918000000000028,0.20883999999999947,37.21536,28.538830000000004,0,0,0,0,1,283:FRAME_グー.png,0.0,0.0,0.0,-11.9629,-7.14111,4.15039,
2020-05-10 22:02:06 +0900,15.700000000000001,0.11646000000000001,-8.676529999999993,79.1,0.11216999999999988,0.2286299999999999,37.21536,28.538830000000004,0,0,0,0,1,283:FRAME_グー.png,0.0,0.0,0.0,-7.62939,-0.854492,11.7188,
2020-05-10 22:02:06 +0900,15.8,0.14938999999999947,-7.560729999999992,79.0,0.1511300000000002,0.3005199999999997,37.21536,29.654630000000004,0,0,0,0,1,283:FRAME_グー.png,0.0,0.0,0.0,-4.94385,4.27246,5.98145,
2020-05-10 22:02:06 +0900,15.9,0.1534999999999993,-7.560729999999992,79.2,0.17525000000000013,0.32874999999999943,37.21536,29.654630000000004,0,0,0,0,1,283:FRAME_グー.png,0.0,0.0,0.0,-10.5591,-0.610352,-6.46973,
2020-05-10 22:02:06 +0900,16.0,0.12626000000000026,-6.122329999999998,79.1,0.17828,0.30454000000000025,37.21536,31.09303,0,0,0,0,1,283:FRAME_グー.png,0.0,0.0,0.0,-17.0288,-4.5166,-16.6016,
2020-05-10 22:02:06 +0900,16.1,0.09621000000000013,-6.122329999999998,78.5,0.17222999999999988,0.26844,37.21536,31.09303,0,0,0,0,1,283:FRAME_グー.png,0.0,0.0,0.0,-21.3623,-2.2583,-18.3716,
2020-05-10 22:02:06 +0900,16.2,0.07339999999999947,-6.122329999999998,78.3,0.16317000000000004,0.2365699999999995,37.21536,31.09303,0,0,0,0,1,283:FRAME_グー.png,0.0,0.0,0.0,-16.2964,-1.95312,-4.94385,
2020-05-10 22:02:06 +0900,16.3,0.10709999999999908,-7.560729999999992,78.1,0.1934200000000006,0.3005199999999997,37.21536,29.654630000000004,0,0,0,0,1,283:FRAME_グー.png,0.0,0.0,0.0,-12.0239,-4.27246,7.38525,
2020-05-10 22:02:06 +0900,16.400000000000002,0.15376999999999974,-7.560729999999992,78.2,0.24833000000000016,0.4020999999999999,37.21536,29.654630000000004,0,0,0,0,1,283:FRAME_グー.png,0.0,0.0,0.0,-17.395,-6.16455,6.89697,
2020-05-10 22:02:07 +0900,16.5,0.16934000000000005,-7.560729999999992,78.4,0.2698499999999999,0.43918999999999997,37.21536,29.654630000000004,0,0,0,0,1,283:FRAME_グー.png,0.0,0.0,0.0,-32.7148,-2.99072,-1.34277,
2020-05-10 22:02:07 +0900,16.6,0.18198999999999899,-7.560729999999992,78.8,0.2945600000000006,0.4765499999999996,37.21536,29.654630000000004,0,0,0,0,1,283:FRAME_グー.png,0.0,0.0,0.0,-44.1284,-3.2959,-7.62939,
2020-05-10 22:02:07 +0900,16.7,0.18412999999999968,-7.560729999999992,78.3,0.30076000000000036,0.48489000000000004,37.21536,29.654630000000004,0,0,0,0,1,283:FRAME_グー.png,0.0,0.0,0.0,-64.4531,-11.0474,-29.541,
2020-05-10 22:02:07 +0900,16.8,0.16113,-7.560729999999992,78.4,0.28218999999999994,0.44331999999999994,37.21536,29.654630000000004,0,0,0,0,1,283:FRAME_グー.png,0.0,0.0,0.0,-73.9746,-11.9629,-41.1377,
2020-05-10 22:02:07 +0900,16.900000000000002,0.1644300000000003,-7.560729999999992,78.1,0.3162799999999999,0.4807100000000002,37.21536,29.654630000000004,0,0,0,0,1,283:FRAME_グー.png,0.0,0.0,0.0,-53.5889,-10.6812,-33.4473,
2020-05-10 22:02:07 +0900,17.0,0.16671999999999976,-6.122329999999998,77.8,0.3474700000000004,0.5141900000000001,37.21536,31.09303,0,0,0,0,1,283:FRAME_グー.png,0.0,0.0,0.0,-27.3438,2.38037,-28.6865,
2020-05-10 22:02:07 +0900,17.1,0.14994999999999958,-6.122329999999998,76.8,0.3474700000000004,0.49742,37.21536,31.09303,0,0,0,0,1,283:FRAME_グー.png,0.0,0.0,0.0,-11.1694,14.7095,-21.3623,
2020-05-10 22:02:07 +0900,17.2,0.13429000000000002,-7.560729999999992,76.4,0.3380900000000002,0.47238000000000024,37.21536,29.654630000000004,0,0,0,0,1,283:FRAME_グー.png,0.0,0.0,0.0,-24.6582,5.98145,7.38525,
2020-05-10 22:02:07 +0900,17.3,0.12183999999999884,-7.560729999999992,77.0,0.3256200000000007,0.4474599999999995,37.21536,29.654630000000004,0,0,0,0,1,283:FRAME_グー.png,0.0,0.0,0.0,-33.3252,-6.16455,27.0996,
2020-05-10 22:02:07 +0900,17.400000000000002,0.15932999999999975,-7.560729999999992,77.4,0.3380900000000002,0.49742,37.21536,29.654630000000004,0,0,0,0,1,283:FRAME_グー.png,0.0,0.0,0.0,-34.6069,-21.0571,15.8691,
2020-05-10 22:02:08 +0900,17.5,0.23080999999999996,-7.560729999999992,77.9,0.38515999999999995,0.6159699999999999,37.21536,29.654630000000004,0,0,0,0,1,283:FRAME_グー.png,0.0,0.0,0.0,-38.5742,-20.5688,13.3667,
2020-05-10 22:02:08 +0900,17.6,0.2623800000000003,-7.560729999999992,78.0,0.4009499999999999,0.6633300000000002,37.21536,29.654630000000004,0,0,0,0,1,283:FRAME_グー.png,0.0,0.0,0.0,-40.9546,-16.7236,-1.34277,
2020-05-10 22:02:08 +0900,17.7,0.2848499999999996,-7.560729999999992,78.2,0.39147,0.6763199999999996,37.21536,29.654630000000004,0,0,0,0,1,283:FRAME_グー.png,0.0,0.0,0.0,-23.0103,-13.5498,-30.1514,
2020-05-10 22:02:08 +0900,17.8,0.2711599999999992,-7.560729999999992,78.8,0.3662800000000006,0.6374399999999998,37.21536,29.654630000000004,0,0,0,0,1,283:FRAME_グー.png,0.0,0.0,0.0,-10.7422,-9.52148,-37.1094,
2020-05-10 22:02:08 +0900,17.900000000000002,0.2298499999999999,-6.122329999999998,78.7,0.3349700000000002,0.5648200000000001,37.21536,31.09303,0,0,0,0,1,283:FRAME_グー.png,0.0,0.0,0.0,-12.4512,-2.56348,-34.79,
2020-05-10 22:02:08 +0900,18.0,0.21957999999999966,-7.560729999999992,78.6,0.35373000000000054,0.5733100000000002,37.21536,29.654630000000004,0,0,0,0,1,283:FRAME_グー.png,0.0,0.0,0.0,-20.9961,0.793457,-22.7051,
2020-05-10 22:02:08 +0900,18.1,0.2220399999999998,-7.560729999999992,78.7,0.37256,0.5945999999999998,37.21536,29.654630000000004,0,0,0,0,1,283:FRAME_グー.png,0.0,0.0,0.0,-25.4517,-18.4326,2.19727,
2020-05-10 22:02:08 +0900,18.2,0.2123899999999992,-7.560729999999992,79.0,0.36942000000000075,0.5818099999999999,37.21536,29.654630000000004,0,0,0,0,1,283:FRAME_グー.png,0.0,0.0,0.0,-26.7944,-28.1372,11.3525,
2020-05-10 22:02:08 +0900,18.3,0.2068499999999993,-7.560729999999992,79.1,0.35373000000000054,0.5605799999999999,37.21536,29.654630000000004,0,0,0,0,1,283:FRAME_グー.png,0.0,0.0,0.0,-11.1084,-18.2495,27.3438,
2020-05-10 22:02:08 +0900,18.400000000000002,0.19806999999999952,-7.560729999999992,79.1,0.3287300000000002,0.5267999999999997,37.21536,29.654630000000004,0,0,0,0,1,283:FRAME_グー.png,0.0,0.0,0.0,-0.305176,-7.26318,19.104,
2020-05-10 22:02:09 +0900,18.5,0.2033699999999996,-7.560729999999992,79.5,0.3318500000000002,0.5352199999999998,37.21536,29.654630000000004,0,0,0,0,1,283:FRAME_グー.png,0.0,0.0,0.0,0.244141,9.09424,7.8125,
2020-05-10 22:02:09 +0900,18.6,0.21978999999999882,-7.560729999999992,79.6,0.3662800000000006,0.5860699999999994,37.21536,29.654630000000004,0,0,0,0,1,283:FRAME_グー.png,0.0,0.0,0.0,9.39941,15.2588,-14.7095,
2020-05-10 22:02:09 +0900,18.7,0.2068499999999993,-7.560729999999992,79.7,0.35373000000000054,0.5605799999999999,37.21536,29.654630000000004,0,0,0,0,1,283:FRAME_グー.png,0.0,0.0,0.0,3.78418,28.8696,-15.625,
2020-05-10 22:02:09 +0900,18.8,0.16549999999999976,-7.560729999999992,80.3,0.3193900000000003,0.48489000000000004,37.21536,29.654630000000004,0,0,0,0,1,283:FRAME_グー.png,0.0,0.0,0.0,-2.19727,26.001,-8.8501,
2020-05-10 22:02:09 +0900,18.900000000000002,0.11378000000000021,-7.560729999999992,80.5,0.27601999999999993,0.38980000000000015,37.21536,29.654630000000004,0,0,0,0,1,283:FRAME_グー.png,0.0,0.0,0.0,3.23486,15.1367,0.488281,
2020-05-10 22:02:09 +0900,19.0,0.06233999999999984,-7.560729999999992,80.7,0.24220000000000041,0.30454000000000025,37.21536,29.654630000000004,0,0,0,0,1,283:FRAME_グー.png,0.0,0.0,0.0,3.23486,15.1367,0.488281,
2020-05-10 22:02:09 +0900,19.1,0.05889999999999951,-8.676529999999993,81.0,0.2698499999999999,0.32874999999999943,37.21536,28.538830000000004,0,0,0,0,1,283:FRAME_グー.png,0.0,0.0,0.0,1.15967,2.74658,14.4043,
2020-05-10 22:02:09 +0900,19.200000000000003,0.05832999999999977,-7.560729999999992,81.7,0.3069600000000001,0.3652899999999999,37.21536,29.654630000000004,0,0,0,0,1,283:FRAME_グー.png,0.0,0.0,0.0,6.7749,-3.66211,30.5786,
2020-05-10 22:02:09 +0900,19.3,0.09714999999999918,-6.122329999999998,82.1,0.3131700000000004,0.4103199999999996,37.21536,31.09303,0,0,0,0,1,283:FRAME_グー.png,0.0,0.0,0.0,25.6348,-10.6201,44.5557,
2020-05-10 22:02:09 +0900,19.400000000000002,0.13117999999999963,-6.122329999999998,82.6,0.3162799999999999,0.4474599999999995,37.21536,31.09303,0,0,0,0,1,283:FRAME_グー.png,0.0,0.0,0.0,47.0581,-3.72314,44.0063,
2020-05-10 22:02:10 +0900,19.5,0.1404899999999989,-6.122329999999998,82.7,0.2945600000000006,0.4350499999999995,37.21536,31.09303,0,0,0,0,1,283:FRAME_グー.png,0.0,0.0,0.0,54.0771,9.0332,27.4658,
2020-05-10 22:02:10 +0900,19.6,0.1497699999999993,-6.122329999999998,82.5,0.2852800000000002,0.4350499999999995,37.21536,31.09303,0,0,0,0,1,283:FRAME_グー.png,0.0,0.0,0.0,61.3403,17.5781,3.60107,
2020-05-10 22:02:10 +0900,19.700000000000003,0.16119999999999912,-6.122329999999998,83.0,0.2945600000000006,0.4557599999999997,37.21536,31.09303,0,0,0,0,1,283:FRAME_グー.png,0.0,0.0,0.0,65.1855,14.7095,-2.50244,
2020-05-10 22:02:10 +0900,19.8,0.13944999999999919,-7.560729999999992,83.2,0.27910000000000057,0.41854999999999976,37.21536,29.654630000000004,0,0,0,0,1,283:FRAME_グー.png,0.0,0.0,0.0,58.5327,19.043,-9.82666,
2020-05-10 22:02:10 +0900,19.900000000000002,0.11181999999999981,-8.676529999999993,83.5,0.25755000000000017,0.36937,37.21536,28.538830000000004,0,0,0,0,1,283:FRAME_グー.png,0.0,0.0,0.0,49.3774,14.7095,1.09863,
2020-05-10 22:02:10 +0900,20.0,0.05658999999999903,-8.676529999999993,83.6,0.22385000000000055,0.2804399999999996,37.21536,28.538830000000004,0,0,0,0,1,284:FRAME_チョキ.png,0.0,0.0,0.0,42.1143,2.62451,15.9912,
2020-05-10 22:02:10 +0900,20.1,-0.01837999999999962,-9.588129999999992,83.9,0.17222999999999988,0.15385000000000026,37.21536,27.627230000000004,0,0,0,0,1,284:FRAME_チョキ.png,0.0,0.0,0.0,31.4331,-0.671387,32.7759,
2020-05-10 22:02:10 +0900,20.200000000000003,-0.05860000000000021,-8.676529999999993,84.2,0.18130000000000024,0.12270000000000003,37.21536,28.538830000000004,0,0,0,0,1,284:FRAME_チョキ.png,0.0,0.0,0.0,29.9683,-3.84521,46.9971,
2020-05-10 22:02:10 +0900,20.3,-0.08622000000000085,-7.560729999999992,84.2,0.1934200000000006,0.10719999999999974,37.21536,29.654630000000004,0,0,0,0,1,284:FRAME_チョキ.png,0.0,0.0,0.0,32.8979,-4.39453,47.6685,
2020-05-10 22:02:10 +0900,20.400000000000002,-0.09865000000000101,-7.560729999999992,84.1,0.19039000000000073,0.09173999999999971,37.21536,29.654630000000004,0,0,0,0,1,284:FRAME_チョキ.png,0.0,0.0,0.0,36.8652,-2.62451,39.2456,
2020-05-10 22:02:11 +0900,20.5,-0.08706000000000103,-4.095029999999994,83.8,0.19039000000000073,0.1033299999999997,37.21536,33.12033,0,0,0,0,1,284:FRAME_チョキ.png,0.0,0.0,0.0,27.0386,5.18799,26.7944,
2020-05-10 22:02:11 +0900,20.6,-0.07797000000000054,-4.095029999999994,84.0,0.18130000000000024,0.1033299999999997,37.21536,33.12033,0,0,0,0,1,284:FRAME_チョキ.png,0.0,0.0,0.0,25.5737,7.20215,30.5176,
2020-05-10 22:02:11 +0900,20.700000000000003,-0.05172000000000043,-0.629329999999996,83.5,0.2055700000000007,0.15385000000000026,37.21536,36.58603,0,0,0,0,1,284:FRAME_チョキ.png,0.0,0.0,0.0,25.8789,-1.77002,23.2544,
2020-05-10 22:02:11 +0900,20.8,-0.025450000000000195,-4.095029999999994,83.0,0.24220000000000041,0.21675000000000022,37.21536,33.12033,0,0,0,0,1,284:FRAME_チョキ.png,0.0,0.0,0.0,30.0293,-15.564,5.43213,
2020-05-10 22:02:11 +0900,20.900000000000002,-0.028120000000001255,-6.122329999999998,83.1,0.23302000000000067,0.20489999999999942,37.21536,31.09303,0,0,0,0,1,284:FRAME_チョキ.png,0.0,0.0,0.0,23.6816,-23.3154,-3.96729,
2020-05-10 22:02:11 +0900,21.0,-0.037360000000000504,-8.676529999999993,83.4,0.21471000000000018,0.17734999999999967,37.21536,28.538830000000004,0,0,0,0,1,284:FRAME_チョキ.png,0.0,0.0,0.0,18.1274,-25.5737,2.92969,
2020-05-10 22:02:11 +0900,21.1,-0.07713000000000036,-9.588129999999992,83.6,0.1843300000000001,0.10719999999999974,37.21536,27.627230000000004,0,0,0,0,1,284:FRAME_チョキ.png,0.0,0.0,0.0,22.3999,-21.2402,5.67627,
2020-05-10 22:02:11 +0900,21.200000000000003,-0.12274999999999991,-9.588129999999992,83.5,0.17222999999999988,0.04947999999999997,37.21536,27.627230000000004,0,0,0,0,1,284:FRAME_チョキ.png,0.0,0.0,0.0,24.231,-11.1084,13.0615,
2020-05-10 22:02:11 +0900,21.3,-0.141420000000001,-8.676529999999993,83.4,0.21775000000000055,0.07632999999999956,37.21536,28.538830000000004,0,0,0,0,1,284:FRAME_チョキ.png,0.0,0.0,0.0,17.9443,-5.49316,16.0522,
2020-05-10 22:02:11 +0900,21.400000000000002,-0.17971000000000092,-7.560729999999992,83.1,0.23302000000000067,0.053309999999999746,37.21536,29.654630000000004,0,0,0,0,1,284:FRAME_チョキ.png,0.0,0.0,0.0,16.0522,2.19727,16.0522,
2020-05-10 22:02:12 +0900,21.5,-0.21859000000000073,-7.560729999999992,82.9,0.22996000000000016,0.011369999999999436,37.21536,29.654630000000004,0,0,0,0,1,284:FRAME_チョキ.png,0.0,0.0,0.0,4.5166,0.610352,15.7471,
2020-05-10 22:02:12 +0900,21.6,-0.22532000000000085,-4.095029999999994,82.5,0.21775000000000055,-0.007570000000000299,37.21536,33.12033,0,0,0,0,1,284:FRAME_チョキ.png,0.0,0.0,0.0,-3.84521,10.9253,17.1509,
2020-05-10 22:02:12 +0900,21.700000000000003,-0.21757999999999988,-4.095029999999994,82.2,0.18735999999999997,-0.030219999999999914,37.21536,33.12033,0,0,0,0,1,284:FRAME_チョキ.png,0.0,0.0,0.0,-3.72314,20.1416,19.9585,
2020-05-10 22:02:12 +0900,21.8,-0.15531000000000095,-4.095029999999994,81.5,0.2086200000000007,0.053309999999999746,37.21536,33.12033,0,0,0,0,1,284:FRAME_チョキ.png,0.0,0.0,0.0,-2.62451,22.0947,21.3013,
2020-05-10 22:02:12 +0900,21.900000000000002,-0.10702000000000034,-6.122329999999998,81.3,0.24527000000000054,0.1382500000000002,37.21536,31.09303,0,0,0,0,1,284:FRAME_チョキ.png,0.0,0.0,0.0,-8.8501,7.50732,24.5972,
2020-05-10 22:02:12 +0900,22.0,-0.08835000000000015,-7.560729999999992,81.4,0.24220000000000041,0.15385000000000026,37.21536,29.654630000000004,0,0,0,0,1,284:FRAME_チョキ.png,0.0,0.0,0.0,-14.4653,0.610352,6.95801,
2020-05-10 22:02:12 +0900,22.1,-0.08001000000000058,-8.676529999999993,81.4,0.22996000000000016,0.14994999999999958,37.21536,28.538830000000004,0,0,0,0,1,284:FRAME_チョキ.png,0.0,0.0,0.0,-14.0381,-9.0332,-14.7095,
2020-05-10 22:02:12 +0900,22.200000000000003,-0.09313000000000038,-9.588129999999992,81.1,0.19646000000000008,0.1033299999999997,37.21536,27.627230000000004,0,0,0,0,1,284:FRAME_チョキ.png,0.0,0.0,0.0,-8.42285,-23.3154,-25.8179,
2020-05-10 22:02:12 +0900,22.3,-0.10168000000000088,-9.588129999999992,80.9,0.1934200000000006,0.09173999999999971,37.21536,27.627230000000004,0,0,0,0,1,284:FRAME_チョキ.png,0.0,0.0,0.0,0.915527,-15.9912,-19.4092,
2020-05-10 22:02:12 +0900,22.400000000000002,-0.08391000000000037,-9.588129999999992,80.1,0.22996000000000016,0.1460499999999998,37.21536,27.627230000000004,0,0,0,0,1,284:FRAME_チョキ.png,0.0,0.0,0.0,-10.0098,-8.23975,-14.7095,
2020-05-10 22:02:13 +0900,22.5,-0.09338000000000068,-8.676529999999993,79.5,0.22385000000000055,0.13046999999999986,37.21536,28.538830000000004,0,0,0,0,1,284:FRAME_チョキ.png,0.0,0.0,0.0,-8.72803,-0.671387,-1.40381,
2020-05-10 22:02:13 +0900,22.6,-0.09672000000000036,-7.560729999999992,78.8,0.21166000000000018,0.11493999999999982,37.21536,29.654630000000004,0,0,0,0,1,284:FRAME_チョキ.png,0.0,0.0,0.0,2.56348,4.82178,-0.549316,
2020-05-10 22:02:13 +0900,22.700000000000003,-0.09368000000000087,-4.095029999999994,78.3,0.2086200000000007,0.11493999999999982,37.21536,33.12033,0,0,0,0,1,284:FRAME_チョキ.png,0.0,0.0,0.0,10.376,12.4512,1.58691,
2020-05-10 22:02:13 +0900,22.8,-0.07037000000000049,-4.095029999999994,77.5,0.2086200000000007,0.1382500000000002,37.21536,33.12033,0,0,0,0,1,284:FRAME_チョキ.png,0.0,0.0,0.0,15.9302,15.5029,-8.66699,
2020-05-10 22:02:13 +0900,22.900000000000002,-0.004160000000000608,-4.095029999999994,77.6,0.2606200000000003,0.2564599999999997,37.21536,33.12033,0,0,0,0,1,284:FRAME_チョキ.png,0.0,0.0,0.0,17.395,11.3525,-10.8032,
2020-05-10 22:02:13 +0900,23.0,0.04323999999999906,-4.095029999999994,77.7,0.2976600000000005,0.34089999999999954,37.21536,33.12033,0,0,0,0,1,284:FRAME_チョキ.png,0.0,0.0,0.0,9.8877,1.0376,-11.5356,
2020-05-10 22:02:13 +0900,23.1,0.05832999999999977,-6.122329999999998,77.9,0.3069600000000001,0.3652899999999999,37.21536,31.09303,0,0,0,0,1,284:FRAME_チョキ.png,0.0,0.0,0.0,-5.5542,-9.39941,-24.1089,
2020-05-10 22:02:13 +0900,23.200000000000003,0.06452999999999953,-6.122329999999998,78.1,0.30076000000000036,0.3652899999999999,37.21536,31.09303,0,0,0,0,1,284:FRAME_チョキ.png,0.0,0.0,0.0,-13.4277,-14.0991,-29.48,
2020-05-10 22:02:13 +0900,23.3,0.04560999999999904,-8.676529999999993,77.9,0.27910000000000057,0.3247099999999996,37.21536,28.538830000000004,0,0,0,0,1,284:FRAME_チョキ.png,0.0,0.0,0.0,-9.09424,-14.5874,-22.522,
2020-05-10 22:02:13 +0900,23.400000000000002,0.03847999999999985,-9.588129999999992,77.7,0.28218999999999994,0.3206699999999998,37.21536,27.627230000000004,0,0,0,0,1,284:FRAME_チョキ.png,0.0,0.0,0.0,-1.64795,-9.33838,-11.8408,
2020-05-10 22:02:14 +0900,23.5,0.04302000000000028,-9.588129999999992,77.3,0.31006,0.3530800000000003,37.21536,27.627230000000004,0,0,0,0,1,284:FRAME_チョキ.png,0.0,0.0,0.0,2.74658,-3.72314,0.244141,
2020-05-10 22:02:14 +0900,23.6,0.02610999999999919,-8.676529999999993,76.9,0.2945600000000006,0.3206699999999998,37.21536,28.538830000000004,0,0,0,0,1,284:FRAME_チョキ.png,0.0,0.0,0.0,2.74658,-3.72314,0.244141,
2020-05-10 22:02:14 +0900,23.700000000000003,0.013379999999998837,-7.560729999999992,76.5,0.27910000000000057,0.2924799999999994,37.21536,29.654630000000004,0,0,0,0,1,284:FRAME_チョキ.png,0.0,0.0,0.0,-0.793457,4.08936,5.5542,
2020-05-10 22:02:14 +0900,23.8,0.017679999999999474,-6.122329999999998,76.0,0.2667700000000002,0.28444999999999965,37.21536,31.09303,0,0,0,0,1,284:FRAME_チョキ.png,0.0,0.0,0.0,1.77002,11.5967,8.36182,
2020-05-10 22:02:14 +0900,23.900000000000002,0.04582999999999959,-4.095029999999994,76.3,0.2667700000000002,0.31259999999999977,37.21536,33.12033,0,0,0,0,1,284:FRAME_チョキ.png,0.0,0.0,0.0,0.915527,15.8691,7.62939,
2020-05-10 22:02:14 +0900,24.0,0.11458999999999975,-0.629329999999996,76.3,0.3287300000000002,0.44331999999999994,37.21536,36.58603,0,0,0,0,1,284:FRAME_チョキ.png,0.0,0.0,0.0,0.244141,14.3433,8.8501,
2020-05-10 22:02:14 +0900,24.1,0.14585000000000026,-4.095029999999994,76.2,0.38515999999999995,0.5310100000000002,37.21536,33.12033,0,0,0,0,1,284:FRAME_チョキ.png,0.0,0.0,0.0,5.49316,9.0332,5.79834,
2020-05-10 22:02:14 +0900,24.200000000000003,0.14590999999999976,-6.122329999999998,76.1,0.41044000000000036,0.5563500000000001,37.21536,31.09303,0,0,0,0,1,284:FRAME_チョキ.png,0.0,0.0,0.0,5.67627,-0.0610352,-5.7373,
2020-05-10 22:02:14 +0900,24.3,0.14480999999999966,-7.560729999999992,76.2,0.39463000000000026,0.5394399999999999,37.21536,29.654630000000004,0,0,0,0,1,284:FRAME_チョキ.png,0.0,0.0,0.0,-4.82178,-12.6343,-23.4375,
2020-05-10 22:02:14 +0900,24.400000000000002,0.10303999999999913,-8.676529999999993,76.5,0.3568700000000007,0.4599099999999998,37.21536,28.538830000000004,0,0,0,0,1,284:FRAME_チョキ.png,0.0,0.0,0.0,-15.1978,-16.0522,-25.3296,
2020-05-10 22:02:15 +0900,24.5,0.07918999999999965,-8.676529999999993,76.7,0.3600000000000003,0.43918999999999997,37.21536,28.538830000000004,0,0,0,0,1,284:FRAME_チョキ.png,0.0,0.0,0.0,-6.40869,-13.1836,-12.6953,
2020-05-10 22:02:15 +0900,24.6,0.06827000000000005,-8.676529999999993,76.8,0.4041100000000002,0.47238000000000024,37.21536,28.538830000000004,0,0,0,0,1,284:FRAME_チョキ.png,0.0,0.0,0.0,-7.38525,-7.8125,-2.13623,
2020-05-10 22:02:15 +0900,24.700000000000003,0.04409999999999936,-8.676529999999993,77.0,0.41996000000000056,0.4640599999999999,37.21536,28.538830000000004,0,0,0,0,1,284:FRAME_チョキ.png,0.0,0.0,0.0,-46.5698,2.92969,1.2207,
2020-05-10 22:02:15 +0900,24.8,0.04092999999999947,-8.676529999999993,77.1,0.42313000000000045,0.4640599999999999,37.21536,28.538830000000004,0,0,0,0,1,284:FRAME_チョキ.png,0.0,0.0,0.0,-57.9834,4.69971,6.28662,
2020-05-10 22:02:15 +0900,24.900000000000002,0.03482999999999947,-7.560729999999992,77.0,0.41678000000000015,0.4516099999999996,37.21536,29.654630000000004,0,0,0,0,1,284:FRAME_チョキ.png,0.0,0.0,0.0,-40.8325,-0.854492,13.855,
2020-05-10 22:02:15 +0900,25.0,0.020479999999999166,-4.095029999999994,76.7,0.41044000000000036,0.4309199999999995,37.21536,33.12033,0,0,0,0,1,284:FRAME_チョキ.png,0.0,0.0,0.0,-31.6772,0.244141,12.7563,
2020-05-10 22:02:15 +0900,25.1,0.058989999999999654,-6.122329999999998,76.7,0.46781000000000006,0.5267999999999997,37.21536,31.09303,0,0,0,0,1,285:FRAME_パー.png,0.0,0.0,0.0,-23.1323,5.12695,19.9585,
2020-05-10 22:02:15 +0900,25.200000000000003,0.07861999999999991,-6.122329999999998,76.3,0.50319,0.5818099999999999,37.21536,31.09303,0,0,0,0,1,285:FRAME_パー.png,0.0,0.0,0.0,-14.5264,3.96729,33.5083,
2020-05-10 22:02:15 +0900,25.3,0.04915000000000003,-6.122329999999998,76.0,0.4902899999999999,0.5394399999999999,37.21536,31.09303,0,0,0,0,1,285:FRAME_パー.png,0.0,0.0,0.0,-0.305176,-5.61523,20.0806,
2020-05-10 22:02:15 +0900,25.400000000000002,0.011949999999999683,-7.560729999999992,76.1,0.4645999999999999,0.4765499999999996,37.21536,29.654630000000004,0,0,0,0,1,285:FRAME_パー.png,0.0,0.0,0.0,1.83105,-6.5918,10.376,
2020-05-10 22:02:16 +0900,25.5,-0.03834000000000071,-8.676529999999993,76.4,0.41996000000000056,0.38161999999999985,37.21536,28.538830000000004,0,0,0,0,1,285:FRAME_パー.png,0.0,0.0,0.0,0.183105,-4.3335,5.7373,
2020-05-10 22:02:16 +0900,25.6,-0.07853000000000065,-8.676529999999993,76.7,0.4072800000000001,0.32874999999999943,37.21536,28.538830000000004,0,0,0,0,1,285:FRAME_パー.png,0.0,0.0,0.0,-3.41797,-3.41797,7.08008,
2020-05-10 22:02:16 +0900,25.700000000000003,-0.05881000000000025,-8.676529999999993,76.8,0.4486100000000004,0.38980000000000015,37.21536,28.538830000000004,0,0,0,0,1,285:FRAME_パー.png,0.0,0.0,0.0,-2.13623,-5.24902,12.7563,
2020-05-10 22:02:16 +0900,25.8,-0.04788000000000103,-8.676529999999993,76.9,0.4582000000000006,0.4103199999999996,37.21536,28.538830000000004,0,0,0,0,1,285:FRAME_パー.png,0.0,0.0,0.0,-1.89209,-1.58691,16.1743,
2020-05-10 22:02:16 +0900,25.900000000000002,-0.035530000000000506,-8.676529999999993,76.9,0.4582000000000006,0.4226700000000001,37.21536,28.538830000000004,0,0,0,0,1,285:FRAME_パー.png,0.0,0.0,0.0,-2.99072,-0.366211,14.8315,
2020-05-10 22:02:16 +0900,26.0,-0.016760000000000552,-7.560729999999992,76.6,0.45181000000000004,0.4350499999999995,37.21536,29.654630000000004,0,0,0,0,1,285:FRAME_パー.png,0.0,0.0,0.0,2.92969,3.35693,13.3057,
2020-05-10 22:02:16 +0900,26.1,-0.019170000000000798,-6.122329999999998,76.2,0.42949000000000037,0.4103199999999996,37.21536,31.09303,0,0,0,0,1,285:FRAME_パー.png,0.0,0.0,0.0,3.479,-0.610352,11.0474,
2020-05-10 22:02:16 +0900,26.200000000000003,0.006189999999999252,-6.122329999999998,75.8,0.44542000000000037,0.4516099999999996,37.21536,31.09303,0,0,0,0,1,285:FRAME_パー.png,0.0,0.0,0.0,3.90625,-5.85938,0.244141,
2020-05-10 22:02:16 +0900,26.3,0.02193999999999985,-4.095029999999994,75.3,0.48385999999999996,0.5057999999999998,37.21536,33.12033,0,0,0,0,1,285:FRAME_パー.png,0.0,0.0,0.0,2.62451,-6.34766,-7.44629,
2020-05-10 22:02:16 +0900,26.400000000000002,-0.006950000000000678,-6.122329999999998,75.1,0.4710100000000006,0.4640599999999999,37.21536,31.09303,0,0,0,0,1,285:FRAME_パー.png,0.0,0.0,0.0,4.3335,-2.99072,-6.34766,
2020-05-10 22:02:17 +0900,26.5,-0.047420000000000684,-6.122329999999998,75.0,0.44542000000000037,0.3979999999999997,37.21536,31.09303,0,0,0,0,1,285:FRAME_パー.png,0.0,0.0,0.0,2.74658,-2.99072,-1.2207,
2020-05-10 22:02:17 +0900,26.6,-0.0776400000000006,-7.560729999999992,74.8,0.41044000000000036,0.33279999999999976,37.21536,29.654630000000004,0,0,0,0,1,285:FRAME_パー.png,0.0,0.0,0.0,-2.62451,-2.31934,5.37109,
2020-05-10 22:02:17 +0900,26.700000000000003,-0.11127000000000109,-8.676529999999993,74.6,0.37571000000000065,0.26443999999999956,37.21536,28.538830000000004,0,0,0,0,1,285:FRAME_パー.png,0.0,0.0,0.0,-2.13623,-1.09863,12.7563,
2020-05-10 22:02:17 +0900,26.8,-0.07853000000000065,-8.676529999999993,75.1,0.4072800000000001,0.32874999999999943,37.21536,28.538830000000004,0,0,0,0,1,285:FRAME_パー.png,0.0,0.0,0.0,0.0,0.12207,12.5732,
2020-05-10 22:02:17 +0900,26.900000000000002,-0.027800000000000935,-8.676529999999993,75.3,0.44223000000000035,0.4144299999999994,37.21536,28.538830000000004,0,0,0,0,1,285:FRAME_パー.png,0.0,0.0,0.0,-2.50244,1.40381,10.1929,
2020-05-10 22:02:17 +0900,27.0,-0.003990000000000826,-7.560729999999992,75.6,0.4390400000000003,0.4350499999999995,37.21536,29.654630000000004,0,0,0,0,1,285:FRAME_パー.png,0.0,0.0,0.0,-5.31006,7.20215,1.0376,
2020-05-10 22:02:17 +0900,27.1,0.0004900000000001015,-7.560729999999992,76.0,0.42630999999999997,0.42680000000000007,37.21536,29.654630000000004,0,0,0,0,1,285:FRAME_パー.png,0.0,0.0,0.0,-6.28662,1.77002,-3.23486,
2020-05-10 22:02:17 +0900,27.200000000000003,-0.016170000000000684,-6.122329999999998,76.4,0.39779000000000053,0.38161999999999985,37.21536,31.09303,0,0,0,0,1,285:FRAME_パー.png,0.0,0.0,0.0,-7.87354,3.84521,-20.1416,
2020-05-10 22:02:17 +0900,27.3,-0.04561000000000082,-6.122329999999998,76.6,0.3662800000000006,0.3206699999999998,37.21536,31.09303,0,0,0,0,1,285:FRAME_パー.png,0.0,0.0,0.0,-6.7749,5.06592,-28.0151,
2020-05-10 22:02:18 +0900,27.400000000000002,-0.03523000000000032,-6.122329999999998,76.5,0.3883100000000006,0.3530800000000003,37.21536,31.09303,0,0,0,0,1,285:FRAME_パー.png,0.0,0.0,0.0,-5.98145,1.15967,-17.4561,
2020-05-10 22:02:18 +0900,27.5,-0.03066000000000013,-6.122329999999998,76.4,0.4041100000000002,0.37345000000000006,37.21536,31.09303,0,0,0,0,1,285:FRAME_パー.png,0.0,0.0,0.0,-9.52148,-1.52588,-7.44629,
2020-05-10 22:02:18 +0900,27.6,-0.047869999999999635,-6.122329999999998,76.2,0.4009499999999999,0.3530800000000003,37.21536,31.09303,0,0,0,0,1,285:FRAME_パー.png,0.0,0.0,0.0,-6.71387,-5.24902,5.31006,
2020-05-10 22:02:18 +0900,27.700000000000003,-0.0374800000000004,-7.560729999999992,75.9,0.39463000000000026,0.35714999999999986,37.21536,29.654630000000004,0,0,0,0,1,285:FRAME_パー.png,0.0,0.0,0.0,-2.86865,-3.78418,10.0098,
2020-05-10 22:02:18 +0900,27.8,-0.03481000000000112,-8.676529999999993,76.1,0.37571000000000065,0.34089999999999954,37.21536,28.538830000000004,0,0,0,0,1,285:FRAME_パー.png,0.0,0.0,0.0,-5.06592,1.46484,16.0522,
2020-05-10 22:02:18 +0900,27.900000000000002,-0.03125000000000089,-8.676529999999993,76.5,0.3600000000000003,0.32874999999999943,37.21536,28.538830000000004,0,0,0,0,1,285:FRAME_パー.png,0.0,0.0,0.0,-2.2583,8.42285,6.95801,
2020-05-10 22:02:18 +0900,28.0,0.016639999999998878,-8.676529999999993,77.0,0.39779000000000053,0.4144299999999994,37.21536,28.538830000000004,0,0,0,0,1,285:FRAME_パー.png,0.0,0.0,0.0,-1.70898,0.610352,5.98145,
2020-05-10 22:02:18 +0900,28.1,0.042149999999999466,-8.676529999999993,76.6,0.41361000000000026,0.4557599999999997,37.21536,28.538830000000004,0,0,0,0,1,285:FRAME_パー.png,0.0,0.0,0.0,-1.58691,2.2583,-0.305176,
2020-05-10 22:02:18 +0900,28.200000000000003,0.031200000000000117,-7.560729999999992,77.4,0.39147,0.4226700000000001,37.21536,29.654630000000004,0,0,0,0,1,285:FRAME_パー.png,0.0,0.0,0.0,0.915527,6.22559,-5.49316,
2020-05-10 22:02:18 +0900,28.3,-0.005060000000001175,-6.122329999999998,77.7,0.3662800000000006,0.36121999999999943,37.21536,31.09303,0,0,0,0,1,285:FRAME_パー.png,0.0,0.0,0.0,0.915527,6.22559,-5.49316,
2020-05-10 22:02:18 +0900,28.400000000000002,-0.04740000000000055,-6.122329999999998,78.0,0.3318500000000002,0.28444999999999965,37.21536,31.09303,0,0,0,0,1,285:FRAME_パー.png,0.0,0.0,0.0,1.89209,5.00488,-10.0098,
2020-05-10 22:02:19 +0900,28.5,-0.08315000000000072,-7.560729999999992,78.2,0.30386000000000024,0.22070999999999952,37.21536,29.654630000000004,0,0,0,0,1,285:FRAME_パー.png,0.0,0.0,0.0,-1.70898,-3.05176,-2.13623,
2020-05-10 22:02:19 +0900,28.6,-0.04874000000000134,-6.122329999999998,78.7,0.34122000000000074,0.2924799999999994,37.21536,31.09303,0,0,0,0,1,285:FRAME_パー.png,0.0,0.0,0.0,-1.15967,-5.12695,8.54492,
2020-05-10 22:02:19 +0900,28.700000000000003,-0.03125000000000089,-6.122329999999998,78.9,0.3600000000000003,0.32874999999999943,37.21536,31.09303,0,0,0,0,1,285:FRAME_パー.png,0.0,0.0,0.0,2.99072,-6.7749,17.8833,
2020-05-10 22:02:19 +0900,28.8,-0.019100000000000783,-6.122329999999998,79.3,0.3600000000000003,0.34089999999999954,37.21536,31.09303,0,0,0,0,1,285:FRAME_パー.png,0.0,0.0,0.0,2.68555,-1.83105,20.4468,
2020-05-10 22:02:19 +0900,28.900000000000002,-0.009700000000000486,-8.676529999999993,79.9,0.3506,0.34089999999999954,37.21536,28.538830000000004,0,0,0,0,1,285:FRAME_パー.png,0.0,0.0,0.0,6.34766,1.77002,12.4512,
2020-05-10 22:02:19 +0900,29.0,-0.02510000000000101,-8.676529999999993,80.0,0.3256200000000007,0.3005199999999997,37.21536,28.538830000000004,0,0,0,0,1,285:FRAME_パー.png,0.0,0.0,0.0,9.94873,-2.62451,-0.488281,
2020-05-10 22:02:19 +0900,29.1,-0.04161999999999999,-8.676529999999993,80.1,0.31006,0.26844,37.21536,28.538830000000004,0,0,0,0,1,285:FRAME_パー.png,0.0,0.0,0.0,8.66699,0.427246,-21.4844,
2020-05-10 22:02:19 +0900,29.200000000000003,-0.024590000000000778,-8.676529999999993,80.3,0.34122000000000074,0.31662999999999997,37.21536,28.538830000000004,0,0,0,0,1,285:FRAME_パー.png,0.0,0.0,0.0,3.90625,2.13623,-23.3154,
2020-05-10 22:02:19 +0900,29.3,-0.0357700000000003,-7.560729999999992,80.7,0.34433999999999987,0.30856999999999957,37.21536,29.654630000000004,0,0,0,0,1,285:FRAME_パー.png,0.0,0.0,0.0,-1.2207,0.0610352,-17.5171,
2020-05-10 22:02:19 +0900,29.400000000000002,-0.06429000000000062,-7.560729999999992,81.1,0.3287300000000002,0.26443999999999956,37.21536,29.654630000000004,0,0,0,0,1,285:FRAME_パー.png,0.0,0.0,0.0,-5.61523,-2.2583,-8.97217,
2020-05-10 22:02:20 +0900,29.5,-0.07660000000000089,-6.122329999999998,81.8,0.3131700000000004,0.2365699999999995,37.21536,31.09303,0,0,0,0,1,285:FRAME_パー.png,0.0,0.0,0.0,-8.42285,-4.21143,5.7373,
2020-05-10 22:02:20 +0900,29.6,-0.09051000000000098,-6.122329999999998,82.4,0.2914600000000007,0.20094999999999974,37.21536,31.09303,0,0,0,0,1,285:FRAME_パー.png,0.0,0.0,0.0,-2.74658,-9.39941,11.3525,
2020-05-10 22:02:20 +0900,29.700000000000003,-0.07644000000000073,-6.122329999999998,83.3,0.2852800000000002,0.20883999999999947,37.21536,31.09303,0,0,0,0,1,285:FRAME_パー.png,0.0,0.0,0.0,-4.94385,-6.34766,16.2354,
2020-05-10 22:02:20 +0900,29.8,-0.024189999999999934,-6.122329999999998,83.2,0.3287300000000002,0.30454000000000025,37.21536,31.09303,0,0,0,0,1,285:FRAME_パー.png,0.0,0.0,0.0,-8.91113,-2.19727,3.11279,
2020-05-10 22:02:20 +0900,29.900000000000002,-0.007489999999999775,-7.560729999999992,83.1,0.34433999999999987,0.3368500000000001,37.21536,29.654630000000004,0,0,0,0,1,285:FRAME_パー.png,0.0,0.0,0.0,-6.65283,0.427246,-0.305176,
2020-05-10 22:02:20 +0900,30.0,-0.010260000000000602,-7.560729999999992,82.8,0.3349700000000002,0.3247099999999996,37.21536,29.654630000000004,0,0,0,0,1,285:FRAME_パー.png,0.0,0.0,0.0,-3.84521,1.09863,-15.3809,
2020-05-10 22:02:20 +0900,30.1,-0.02290000000000081,-7.560729999999992,82.5,0.3193900000000003,0.2964899999999995,37.21536,29.654630000000004,0,0,0,0,1,282:FRAME_rest.png,0.0,0.0,0.0,-2.2583,4.02832,-23.8037,
2020-05-10 22:02:20 +0900,30.200000000000003,-0.051800000000000956,-8.676529999999993,82.3,0.28837000000000046,0.2365699999999995,37.21536,28.538830000000004,0,0,0,0,1,282:FRAME_rest.png,0.0,0.0,0.0,-1.52588,2.74658,-17.7612,
2020-05-10 22:02:20 +0900,30.3,-0.06803000000000115,-8.676529999999993,82.3,0.27293000000000056,0.20489999999999942,37.21536,28.538830000000004,0,0,0,0,1,282:FRAME_rest.png,0.0,0.0,0.0,-5.12695,4.69971,-10.0098,
2020-05-10 22:02:20 +0900,30.400000000000002,-0.03852000000000011,-8.676529999999993,82.4,0.3069600000000001,0.26844,37.21536,28.538830000000004,0,0,0,0,1,282:FRAME_rest.png,0.0,0.0,0.0,-6.40869,-2.13623,2.80762,
2020-05-10 22:02:21 +0900,30.5,-0.026910000000000878,-7.560729999999992,82.6,0.3193900000000003,0.2924799999999994,37.21536,29.654630000000004,0,0,0,0,1,282:FRAME_rest.png,0.0,0.0,0.0,-2.19727,-8.72803,4.69971,
2020-05-10 22:02:21 +0900,30.6,-0.020690000000000985,-6.122329999999998,83.0,0.3131700000000004,0.2924799999999994,37.21536,31.09303,0,0,0,0,1,282:FRAME_rest.png,0.0,0.0,0.0,4.15039,-6.71387,5.06592,
2020-05-10 22:02:21 +0900,30.700000000000003,-0.015400000000000524,-6.122329999999998,83.7,0.30386000000000024,0.2884599999999997,37.21536,31.09303,0,0,0,0,1,282:FRAME_rest.png,0.0,0.0,0.0,1.28174,-2.56348,7.08008,
2020-05-10 22:02:21 +0900,30.8,-0.016840000000000188,-6.122329999999998,84.0,0.2852800000000002,0.26844,37.21536,31.09303,0,0,0,0,1,282:FRAME_rest.png,0.0,0.0,0.0,0.915527,1.34277,-0.915527,
2020-05-10 22:02:21 +0900,30.900000000000002,-0.023539999999999672,-6.122329999999998,84.1,0.27601999999999993,0.25248000000000026,37.21536,31.09303,0,0,0,0,1,282:FRAME_rest.png,0.0,0.0,0.0,1.89209,1.77002,-7.75146,
2020-05-10 22:02:21 +0900,31.0,0.0025399999999997647,-7.560729999999992,83.9,0.31006,0.31259999999999977,37.21536,29.654630000000004,0,0,0,0,1,282:FRAME_rest.png,0.0,0.0,0.0,4.57764,8.8501,-15.7471,
2020-05-10 22:02:21 +0900,31.1,-0.006790000000000518,-7.560729999999992,84.8,0.3193900000000003,0.31259999999999977,37.21536,29.654630000000004,0,0,0,0,1,282:FRAME_rest.png,0.0,0.0,0.0,3.66211,6.28662,-7.01904,
2020-05-10 22:02:21 +0900,31.200000000000003,-0.026520000000000543,-8.676529999999993,84.5,0.3069600000000001,0.2804399999999996,37.21536,28.538830000000004,0,0,0,0,1,282:FRAME_rest.png,0.0,0.0,0.0,-1.2207,4.3335,-4.94385,
2020-05-10 22:02:21 +0900,31.3,-0.03898000000000046,-8.676529999999993,84.8,0.2914600000000007,0.25248000000000026,37.21536,28.538830000000004,0,0,0,0,1,282:FRAME_rest.png,0.0,0.0,0.0,-7.87354,-4.94385,0.427246,
2020-05-10 22:02:22 +0900,31.400000000000002,-0.05222000000000104,-8.676529999999993,84.9,0.27293000000000056,0.22070999999999952,37.21536,28.538830000000004,0,0,0,0,1,282:FRAME_rest.png,0.0,0.0,0.0,-3.78418,-6.40869,5.7373,
2020-05-10 22:02:22 +0900,31.5,-0.05880000000000063,-7.560729999999992,85.2,0.26370000000000005,0.20489999999999942,37.21536,29.654630000000004,0,0,0,0,1,282:FRAME_rest.png,0.0,0.0,0.0,-4.63867,-5.67627,3.90625,
2020-05-10 22:02:22 +0900,31.6,-0.013570000000000526,-7.560729999999992,85.3,0.31006,0.2964899999999995,37.21536,29.654630000000004,0,0,0,0,1,282:FRAME_rest.png,0.0,0.0,0.0,-4.08936,-2.50244,2.62451,
2020-05-10 22:02:22 +0900,31.700000000000003,0.0006199999999996209,-7.560729999999992,85.6,0.34433999999999987,0.3449599999999995,37.21536,29.654630000000004,0,0,0,0,1,282:FRAME_rest.png,0.0,0.0,0.0,0.793457,0.549316,-3.78418,
2020-05-10 22:02:22 +0900,31.8,-0.0025100000000009004,-6.122329999999998,85.6,0.3474700000000004,0.3449599999999995,37.21536,31.09303,0,0,0,0,1,282:FRAME_rest.png,0.0,0.0,0.0,5.43213,1.2207,-6.46973,
2020-05-10 22:02:22 +0900,31.900000000000002,-0.012470000000001313,-6.122329999999998,85.6,0.34122000000000074,0.32874999999999943,37.21536,31.09303,0,0,0,0,1,282:FRAME_rest.png,0.0,0.0,0.0,5.18799,3.96729,-9.39941,
2020-05-10 22:02:22 +0900,32.0,-0.038950000000000706,-6.122329999999998,86.3,0.3193900000000003,0.2804399999999996,37.21536,31.09303,0,0,0,0,1,282:FRAME_rest.png,0.0,0.0,0.0,4.08936,5.06592,-5.85938,
2020-05-10 22:02:22 +0900,32.1,-0.06593000000000071,-6.122329999999998,87.0,0.2945600000000006,0.2286299999999999,37.21536,31.09303,0,0,0,0,1,282:FRAME_rest.png,0.0,0.0,0.0,-1.64795,1.70898,-0.793457,
2020-05-10 22:02:22 +0900,32.2,-0.046510000000000495,-7.560729999999992,87.5,0.3349700000000002,0.2884599999999997,37.21536,29.654630000000004,0,0,0,0,1,282:FRAME_rest.png,0.0,0.0,0.0,-6.89697,-3.35693,5.37109,
2020-05-10 22:02:22 +0900,32.300000000000004,-0.036620000000000985,-8.676529999999993,87.8,0.36942000000000075,0.33279999999999976,37.21536,28.538830000000004,0,0,0,0,1,282:FRAME_rest.png,0.0,0.0,0.0,-3.90625,-4.63867,7.93457,
2020-05-10 22:02:23 +0900,32.4,-0.027600000000000513,-8.676529999999993,88.2,0.37256,0.3449599999999995,37.21536,28.538830000000004,0,0,0,0,1,282:FRAME_rest.png,0.0,0.0,0.0,2.86865,-5.37109,6.5918,
2020-05-10 22:02:23 +0900,32.5,-0.014490000000001224,-8.676529999999993,88.5,0.37571000000000065,0.36121999999999943,37.21536,28.538830000000004,0,0,0,0,1,282:FRAME_rest.png,0.0,0.0,0.0,6.10352,2.68555,6.22559,
2020-05-10 22:02:23 +0900,32.6,-0.009130000000000749,-7.560729999999992,89.0,0.3662800000000006,0.35714999999999986,37.21536,29.654630000000004,0,0,0,0,1,282:FRAME_rest.png,0.0,0.0,0.0,5.12695,6.71387,0.793457,
2020-05-10 22:02:23 +0900,32.7,-0.014670000000000627,-7.560729999999992,89.3,0.3474700000000004,0.33279999999999976,37.21536,29.654630000000004,0,0,0,0,1,282:FRAME_rest.png,0.0,0.0,0.0,7.14111,7.56836,-10.498,
2020-05-10 22:02:23 +0900,32.800000000000004,0.010939999999999728,-7.560729999999992,89.6,0.3788600000000004,0.38980000000000015,37.21536,29.654630000000004,0,0,0,0,1,282:FRAME_rest.png,0.0,0.0,0.0,8.91113,7.8125,-13.5498,
2020-05-10 22:02:23 +0900,32.9,0.024609999999999133,-6.122329999999998,90.0,0.41044000000000036,0.4350499999999995,37.21536,31.09303,0,0,0,0,1,282:FRAME_rest.png,0.0,0.0,0.0,6.34766,6.04248,-10.9253,
2020-05-10 22:02:23 +0900,33.0,0.009369999999999656,-6.122329999999998,90.4,0.4009499999999999,0.4103199999999996,37.21536,31.09303,0,0,0,0,1,282:FRAME_rest.png,0.0,0.0,0.0,6.34766,6.04248,-10.9253,
2020-05-10 22:02:23 +0900,33.1,0.0005499999999996064,-6.122329999999998,90.9,0.38515999999999995,0.38570999999999955,37.21536,31.09303,0,0,0,0,1,282:FRAME_rest.png,0.0,0.0,0.0,-0.305176,-1.77002,-3.479,
2020-05-10 22:02:23 +0900,33.2,-0.009130000000000749,-6.122329999999998,91.4,0.3662800000000006,0.35714999999999986,37.21536,31.09303,0,0,0,0,1,282:FRAME_rest.png,0.0,0.0,0.0,-8.42285,-4.94385,4.21143,
2020-05-10 22:02:23 +0900,33.300000000000004,-0.018720000000000958,-7.560729999999992,92.0,0.3474700000000004,0.32874999999999943,37.21536,29.654630000000004,0,0,0,0,1,282:FRAME_rest.png,0.0,0.0,0.0,-4.45557,-2.68555,2.0752,
2020-05-10 22:02:23 +0900,33.4,0.015039999999999054,-7.560729999999992,92.6,0.3788600000000004,0.3938999999999995,37.21536,29.654630000000004,0,0,0,0,1,282:FRAME_rest.png,0.0,0.0,0.0,-3.17383,-2.38037,6.22559,
2020-05-10 22:02:24 +0900,33.5,0.05241999999999969,-8.676529999999993,93.1,0.41996000000000056,0.47238000000000024,37.21536,28.538830000000004,0,0,0,0,1,282:FRAME_rest.png,0.0,0.0,0.0,-1.77002,0.183105,6.16455,
2020-05-10 22:02:24 +0900,33.6,0.04825999999999908,-8.676529999999993,93.6,0.41996000000000056,0.46821999999999964,37.21536,28.538830000000004,0,0,0,0,1,282:FRAME_rest.png,0.0,0.0,0.0,2.80762,4.39453,-1.64795,
2020-05-10 22:02:24 +0900,33.7,0.026809999999999334,-8.676529999999993,93.7,0.4041100000000002,0.4309199999999995,37.21536,28.538830000000004,0,0,0,0,1,282:FRAME_rest.png,0.0,0.0,0.0,5.7373,5.61523,-4.3335,
2020-05-10 22:02:24 +0900,33.800000000000004,0.009999999999998899,-7.560729999999992,93.7,0.37571000000000065,0.38570999999999955,37.21536,29.654630000000004,0,0,0,0,1,282:FRAME_rest.png,0.0,0.0,0.0,6.46973,2.86865,-5.7373,
2020-05-10 22:02:24 +0900,33.9,-0.020550000000000956,-7.560729999999992,93.8,0.34122000000000074,0.3206699999999998,37.21536,29.654630000000004,0,0,0,0,1,282:FRAME_rest.png,0.0,0.0,0.0,1.2207,-0.244141,-6.83594,
2020-05-10 22:02:24 +0900,34.0,-0.011540000000000106,-6.122329999999998,94.0,0.34433999999999987,0.33279999999999976,37.21536,31.09303,0,0,0,0,1,282:FRAME_rest.png,0.0,0.0,0.0,-5.37109,-3.479,-1.89209,
2020-05-10 22:02:24 +0900,34.1,0.02104999999999979,-6.122329999999998,94.2,0.38515999999999995,0.40620999999999974,37.21536,31.09303,0,0,0,0,1,282:FRAME_rest.png,0.0,0.0,0.0,-4.3335,-7.01904,5.24902,
2020-05-10 22:02:24 +0900,34.2,0.02611999999999881,-6.122329999999998,94.5,0.3883100000000006,0.4144299999999994,37.21536,31.09303,0,0,0,0,1,282:FRAME_rest.png,0.0,0.0,0.0,-6.28662,-4.3335,6.5918,
2020-05-10 22:02:24 +0900,34.300000000000004,0.02830999999999939,-6.122329999999998,94.7,0.3820100000000002,0.4103199999999996,37.21536,31.09303,0,0,0,0,1,282:FRAME_rest.png,0.0,0.0,0.0,-16.6016,-0.976562,-0.854492,
2020-05-10 22:02:25 +0900,34.4,0.02351999999999954,-6.122329999999998,95.2,0.3662800000000006,0.38980000000000015,37.21536,31.09303,0,0,0,0,1,282:FRAME_rest.png,0.0,0.0,0.0,-10.6812,0.0,-4.21143,
2020-05-10 22:02:25 +0900,34.5,-0.003100000000000769,-7.560729999999992,95.7,0.3318500000000002,0.32874999999999943,37.21536,29.654630000000004,0,0,0,0,1,282:FRAME_rest.png,0.0,0.0,0.0,-1.52588,1.77002,-4.3335,
2020-05-10 22:02:25 +0900,34.6,-0.013930000000001108,-7.560729999999992,96.0,0.3225000000000007,0.30856999999999957,37.21536,29.654630000000004,0,0,0,0,1,282:FRAME_rest.png,0.0,0.0,0.0,5.5542,7.44629,-8.17871,
2020-05-10 22:02:25 +0900,34.7,-0.0034400000000003317,-7.560729999999992,96.6,0.34433999999999987,0.34089999999999954,37.21536,29.654630000000004,0,0,0,0,1,282:FRAME_rest.png,0.0,0.0,0.0,3.41797,3.96729,-6.71387,
2020-05-10 22:02:25 +0900,34.800000000000004,-0.025490000000000457,-8.676529999999993,97.2,0.3380900000000002,0.31259999999999977,37.21536,28.538830000000004,0,0,0,0,1,282:FRAME_rest.png,0.0,0.0,0.0,-2.62451,-1.2207,-5.49316,
2020-05-10 22:02:25 +0900,34.9,-0.03805000000000103,-8.676529999999993,97.3,0.3225000000000007,0.28444999999999965,37.21536,28.538830000000004,0,0,0,0,1,282:FRAME_rest.png,0.0,0.0,0.0,-7.08008,-7.20215,3.35693,
2020-05-10 22:02:25 +0900,35.0,-0.04161999999999999,-7.560729999999992,97.4,0.31006,0.26844,37.21536,29.654630000000004,0,0,0,0,1,282:FRAME_rest.png,0.0,0.0,0.0,-4.27246,-7.87354,11.7798,
2020-05-10 22:02:25 +0900,35.1,-0.05577000000000076,-6.122329999999998,97.6,0.28837000000000046,0.2325999999999997,37.21536,31.09303,0,0,0,0,1,282:FRAME_rest.png,0.0,0.0,0.0,-4.76074,-9.8877,12.7563,
2020-05-10 22:02:25 +0900,35.2,-0.05356000000000005,-6.122329999999998,97.9,0.28218999999999994,0.2286299999999999,37.21536,31.09303,0,0,0,0,1,282:FRAME_rest.png,0.0,0.0,0.0,-0.183105,-3.54004,12.8784,
2020-05-10 22:02:25 +0900,35.300000000000004,-0.028720000000000745,-4.095029999999994,98.2,0.3131700000000004,0.28444999999999965,37.21536,33.12033,0,0,0,0,1,282:FRAME_rest.png,0.0,0.0,0.0,2.38037,2.74658,3.60107,
2020-05-10 22:02:26 +0900,35.4,-0.03852000000000011,-6.122329999999998,98.4,0.3069600000000001,0.26844,37.21536,31.09303,0,0,0,0,1,282:FRAME_rest.png,0.0,0.0,0.0,3.54004,5.61523,-4.27246,
2020-05-10 22:02:26 +0900,35.5,-0.06370000000000076,-7.560729999999992,98.6,0.28837000000000046,0.2246699999999997,37.21536,29.654630000000004,0,0,0,0,1,282:FRAME_rest.png,0.0,0.0,0.0,9.0332,10.0098,-2.44141,
2020-05-10 22:02:26 +0900,35.6,-0.0894200000000005,-8.676529999999993,98.6,0.2667700000000002,0.17734999999999967,37.21536,28.538830000000004,0,0,0,0,1,282:FRAME_rest.png,0.0,0.0,0.0,6.10352,6.95801,0.488281,
2020-05-10 22:02:26 +0900,35.7,-0.11726000000000081,-8.676529999999993,98.7,0.2360800000000003,0.11881999999999948,37.21536,28.538830000000004,0,0,0,0,1,282:FRAME_rest.png,0.0,0.0,0.0,-3.54004,0.12207,-0.244141,
2020-05-10 22:02:26 +0900,35.800000000000004,-0.12358000000000047,-8.676529999999993,98.8,0.22691000000000017,0.1033299999999997,37.21536,28.538830000000004,0,0,0,0,1,282:FRAME_rest.png,0.0,0.0,0.0,-6.28662,-4.82178,6.95801,
2020-05-10 22:02:26 +0900,35.9,-0.09112000000000009,-8.676529999999993,98.6,0.2606200000000003,0.1695000000000002,37.21536,28.538830000000004,0,0,0,0,1,282:FRAME_rest.png,0.0,0.0,0.0,-2.13623,-4.15039,15.8691,
2020-05-10 22:02:26 +0900,36.0,-0.0894200000000005,-8.676529999999993,98.4,0.2667700000000002,0.17734999999999967,37.21536,28.538830000000004,0,0,0,0,1,282:FRAME_rest.png,0.0,0.0,0.0,-0.12207,-0.793457,13.2446,
2020-05-10 22:02:26 +0900,36.1,-0.09112000000000009,-8.676529999999993,98.3,0.2606200000000003,0.1695000000000002,37.21536,28.538830000000004,0,0,0,0,1,282:FRAME_rest.png,0.0,0.0,0.0,2.38037,2.2583,7.69043,
2020-05-10 22:02:26 +0900,36.2,-0.09671000000000074,-6.122329999999998,98.3,0.2544700000000004,0.15775999999999968,37.21536,31.09303,0,0,0,0,1,282:FRAME_rest.png,0.0,0.0,0.0,2.50244,-0.366211,0.854492,
2020-05-10 22:02:26 +0900,36.300000000000004,-0.11502000000000034,-4.095029999999994,98.2,0.22996000000000016,0.11493999999999982,37.21536,33.12033,0,0,0,0,1,282:FRAME_rest.png,0.0,0.0,0.0,5.06592,0.0610352,-7.38525,
2020-05-10 22:02:27 +0900,36.4,-0.12052000000000085,-6.122329999999998,98.1,0.22385000000000055,0.1033299999999997,37.21536,31.09303,0,0,0,0,1,282:FRAME_rest.png,0.0,0.0,0.0,4.15039,3.54004,-9.15527,
2020-05-10 22:02:27 +0900,36.5,-0.1014500000000007,-4.095029999999994,98.0,0.2514000000000003,0.14994999999999958,37.21536,33.12033,0,0,0,0,1,282:FRAME_rest.png,0.0,0.0,0.0,-0.427246,0.793457,-8.05664,
2020-05-10 22:02:27 +0900,36.6,-0.10925000000000029,-6.122329999999998,98.0,0.2514000000000003,0.14215,37.21536,31.09303,0,0,0,0,1,282:FRAME_rest.png,0.0,0.0,0.0,-6.65283,-3.23486,-1.46484,
2020-05-10 22:02:27 +0900,36.7,-0.11562000000000072,-7.560729999999992,98.0,0.24220000000000041,0.1265799999999997,37.21536,29.654630000000004,0,0,0,0,1,282:FRAME_rest.png,0.0,0.0,0.0,-5.61523,-5.12695,3.72314,
2020-05-10 22:02:27 +0900,36.800000000000004,-0.11726000000000081,-7.560729999999992,98.3,0.2360800000000003,0.11881999999999948,37.21536,29.654630000000004,0,0,0,0,1,282:FRAME_rest.png,0.0,0.0,0.0,-1.40381,-4.02832,5.06592,
2020-05-10 22:02:27 +0900,36.9,-0.12520000000000042,-8.676529999999993,98.6,0.22080000000000055,0.09560000000000013,37.21536,28.538830000000004,0,0,0,0,1,282:FRAME_rest.png,0.0,0.0,0.0,0.183105,0.0,2.38037,
2020-05-10 22:02:27 +0900,37.0,-0.11032000000000064,-8.676529999999993,98.7,0.23302000000000067,0.12270000000000003,37.21536,28.538830000000004,0,0,0,0,1,282:FRAME_rest.png,0.0,0.0,0.0,2.2583,2.50244,-0.976562,
2020-05-10 22:02:27 +0900,37.1,-0.08157000000000014,-8.676529999999993,98.8,0.2667700000000002,0.18520000000000003,37.21536,28.538830000000004,0,0,0,0,1,282:FRAME_rest.png,0.0,0.0,0.0,3.78418,-0.610352,-2.0752,
2020-05-10 22:02:27 +0900,37.2,-0.08720000000000017,-7.560729999999992,98.7,0.2606200000000003,0.17342000000000013,37.21536,29.654630000000004,0,0,0,0,1,282:FRAME_rest.png,0.0,0.0,0.0,4.02832,2.68555,-7.01904,
2020-05-10 22:02:27 +0900,37.300000000000004,-0.10702000000000034,-7.560729999999992,98.8,0.24527000000000054,0.1382500000000002,37.21536,29.654630000000004,0,0,0,0,1,282:FRAME_rest.png,0.0,0.0,0.0,1.58691,2.50244,-6.83594,
2020-05-10 22:02:27 +0900,37.4,-0.12358000000000047,-6.122329999999998,98.9,0.22691000000000017,0.1033299999999997,37.21536,31.09303,0,0,0,0,1,282:FRAME_rest.png,0.0,0.0,0.0,-3.90625,-1.52588,-5.5542,
2020-05-10 22:02:28 +0900,37.5,-0.1461800000000002,-6.122329999999998,98.8,0.19948999999999995,0.053309999999999746,37.21536,31.09303,0,0,0,0,1,282:FRAME_rest.png,0.0,0.0,0.0,-5.00488,-4.02832,4.27246,
2020-05-10 22:02:28 +0900,37.6,-0.12844000000000122,-6.122329999999998,98.8,0.2086200000000007,0.08017999999999947,37.21536,31.09303,0,0,0,0,1,282:FRAME_rest.png,0.0,0.0,0.0,-5.00488,-4.02832,4.27246,
2020-05-10 22:02:28 +0900,37.7,-0.10644000000000098,-7.560729999999992,98.6,0.23302000000000067,0.1265799999999997,37.21536,29.654630000000004,0,0,0,0,1,282:FRAME_rest.png,0.0,0.0,0.0,-3.66211,-3.11279,10.498,
2020-05-10 22:02:28 +0900,37.800000000000004,-0.10172000000000025,-7.560729999999992,98.4,0.2360800000000003,0.13436000000000003,37.21536,29.654630000000004,0,0,0,0,1,282:FRAME_rest.png,0.0,0.0,0.0,-1.52588,-1.95312,13.6108,
2020-05-10 22:02:28 +0900,37.9,-0.09393000000000029,-7.560729999999992,98.4,0.2360800000000003,0.14215,37.21536,29.654630000000004,0,0,0,0,1,282:FRAME_rest.png,0.0,0.0,0.0,0.183105,1.34277,9.27734,
2020-05-10 22:02:28 +0900,38.0,-0.0964400000000003,-7.560729999999992,98.4,0.22691000000000017,0.13046999999999986,37.21536,29.654630000000004,0,0,0,0,1,282:FRAME_rest.png,0.0,0.0,0.0,-0.793457,-1.77002,-0.183105,
2020-05-10 22:02:28 +0900,38.1,-0.11383000000000099,-8.676529999999993,98.3,0.2055700000000007,0.09173999999999971,37.21536,28.538830000000004,0,0,0,0,1,282:FRAME_rest.png,0.0,0.0,0.0,3.60107,-3.05176,-6.40869,
2020-05-10 22:02:28 +0900,38.2,-0.11055000000000081,-8.676529999999993,98.3,0.21775000000000055,0.10719999999999974,37.21536,28.538830000000004,0,0,0,0,1,282:FRAME_rest.png,0.0,0.0,0.0,5.06592,2.0752,-11.1694,
2020-05-10 22:02:28 +0900,38.300000000000004,-0.11032000000000064,-7.560729999999992,98.3,0.23302000000000067,0.12270000000000003,37.21536,29.654630000000004,0,0,0,0,1,282:FRAME_rest.png,0.0,0.0,0.0,3.17383,3.17383,-14.1602,
2020-05-10 22:02:29 +0900,38.400000000000006,-0.12825000000000042,-6.122329999999998,98.1,0.22385000000000055,0.09560000000000013,37.21536,31.09303,0,0,0,0,1,282:FRAME_rest.png,0.0,0.0,0.0,-3.84521,-3.23486,-6.65283,
2020-05-10 22:02:29 +0900,38.5,-0.13372000000000028,-6.122329999999998,98.2,0.21775000000000055,0.08403000000000027,37.21536,31.09303,0,0,0,0,1,282:FRAME_rest.png,0.0,0.0,0.0,-5.61523,-4.69971,6.04248,
2020-05-10 22:02:29 +0900,38.6,-0.13997000000000082,-6.122329999999998,98.0,0.2086200000000007,0.06864999999999988,37.21536,31.09303,0,0,0,0,1,282:FRAME_rest.png,0.0,0.0,0.0,-3.479,-3.23486,16.0522,
2020-05-10 22:02:29 +0900,38.7,-0.13388000000000044,-4.095029999999994,98.0,0.20253000000000032,0.06864999999999988,37.21536,33.12033,0,0,0,0,1,282:FRAME_rest.png,0.0,0.0,0.0,-2.56348,-2.99072,22.583,
2020-05-10 22:02:29 +0900,38.800000000000004,-0.09142000000000028,-4.095029999999994,98.0,0.24527000000000054,0.15385000000000026,37.21536,33.12033,0,0,0,0,1,282:FRAME_rest.png,0.0,0.0,0.0,0.0,3.90625,9.76562,
2020-05-10 22:02:29 +0900,38.900000000000006,-0.05974000000000057,-6.122329999999998,98.2,0.28837000000000046,0.2286299999999999,37.21536,31.09303,0,0,0,0,1,282:FRAME_rest.png,0.0,0.0,0.0,-0.488281,-1.09863,5.67627,
2020-05-10 22:02:29 +0900,39.0,-0.05137999999999998,-7.560729999999992,98.2,0.30386000000000024,0.25248000000000026,37.21536,29.654630000000004,0,0,0,0,1,282:FRAME_rest.png,0.0,0.0,0.0,-0.12207,-0.305176,-9.15527,
2020-05-10 22:02:29 +0900,39.1,-0.06332000000000004,-7.560729999999992,98.4,0.30386000000000024,0.2405400000000002,37.21536,29.654630000000004,0,0,0,0,1,282:FRAME_rest.png,0.0,0.0,0.0,2.74658,2.13623,-15.4419,
2020-05-10 22:02:29 +0900,39.2,-0.08827000000000051,-8.676529999999993,98.4,0.2852800000000002,0.19700999999999969,37.21536,28.538830000000004,0,0,0,0,1,282:FRAME_rest.png,0.0,0.0,0.0,6.83594,5.00488,-17.7612,
2020-05-10 22:02:29 +0900,39.300000000000004,-0.11375000000000046,-8.676529999999993,98.4,0.26370000000000005,0.14994999999999958,37.21536,28.538830000000004,0,0,0,0,1,282:FRAME_rest.png,0.0,0.0,0.0,-0.549316,3.05176,-14.7095,
2020-05-10 22:02:30 +0900,39.400000000000006,-0.09671000000000074,-7.560729999999992,98.3,0.2976600000000005,0.20094999999999974,37.21536,29.654630000000004,0,0,0,0,1,282:FRAME_rest.png,0.0,0.0,0.0,-2.68555,-2.44141,-1.64795,
2020-05-10 22:02:30 +0900,39.5,-0.07140000000000057,-6.122329999999998,98.2,0.3318500000000002,0.2604499999999996,37.21536,31.09303,0,0,0,0,1,282:FRAME_rest.png,0.0,0.0,0.0,2.13623,-3.479,12.085,
2020-05-10 22:02:30 +0900,39.6,-0.06390000000000029,-7.560729999999992,98.2,0.34433999999999987,0.2804399999999996,37.21536,29.654630000000004,0,0,0,0,1,282:FRAME_rest.png,0.0,0.0,0.0,-3.90625,-2.80762,26.1841,
2020-05-10 22:02:30 +0900,39.7,-0.04516000000000098,-6.122329999999998,98.2,0.35373000000000054,0.30856999999999957,37.21536,31.09303,0,0,0,0,1,282:FRAME_rest.png,0.0,0.0,0.0,2.0752,-7.50732,25.8179,
2020-05-10 22:02:30 +0900,39.800000000000004,-0.025890000000000413,-6.122329999999998,97.8,0.3506,0.3247099999999996,37.21536,31.09303,0,0,0,0,1,282:FRAME_rest.png,0.0,0.0,0.0,5.61523,-6.46973,14.9536,
2020-05-10 22:02:30 +0900,39.900000000000006,-0.0277099999999999,-4.095029999999994,97.7,0.34433999999999987,0.31662999999999997,37.21536,33.12033,0,0,0,0,1,282:FRAME_rest.png,0.0,0.0,0.0,0.610352,-4.57764,4.15039,
2020-05-10 22:02:30 +0900,40.0,-0.01301000000000041,-6.122329999999998,97.7,0.39463000000000026,0.38161999999999985,37.21536,31.09303,0,0,0,0,1,282:FRAME_rest.png,0.0,0.0,0.0,0.244141,1.46484,-14.7095,
2020-05-10 22:02:30 +0900,40.1,0.013529999999999376,-8.676529999999993,97.8,0.44223000000000035,0.4557599999999997,37.21536,28.538830000000004,0,0,0,0,1,282:FRAME_rest.png,0.0,0.0,0.0,2.80762,1.2207,-24.5972,
2020-05-10 22:02:30 +0900,40.2,0.007460000000000022,-8.676529999999993,98.0,0.4358599999999999,0.44331999999999994,37.21536,28.538830000000004,0,0,0,0,1,282:FRAME_rest.png,0.0,0.0,0.0,4.82178,-0.183105,-22.3389,
2020-05-10 22:02:30 +0900,40.300000000000004,-0.004580000000000695,-8.676529999999993,97.9,0.42313000000000045,0.41854999999999976,37.21536,28.538830000000004,0,0,0,0,1,282:FRAME_rest.png,0.0,0.0,0.0,-0.732422,-1.2207,-10.8643,
2020-05-10 22:02:31 +0900,40.400000000000006,-0.03066000000000013,-9.588129999999992,97.9,0.4041100000000002,0.37345000000000006,37.21536,27.627230000000004,0,0,0,0,1,282:FRAME_rest.png,0.0,0.0,0.0,-3.84521,-3.41797,-1.70898,
2020-05-10 22:02:31 +0900,40.5,-0.04516000000000009,-7.560729999999992,97.9,0.3820100000000002,0.3368500000000001,37.21536,29.654630000000004,0,0,0,0,1,282:FRAME_rest.png,0.0,0.0,0.0,-4.63867,2.31934,10.9863,
2020-05-10 22:02:31 +0900,40.6,-0.019710000000000782,-7.560729999999992,97.8,0.41361000000000026,0.3938999999999995,37.21536,29.654630000000004,0,0,0,0,1,282:FRAME_rest.png,0.0,0.0,0.0,-7.87354,-2.38037,20.2637,
2020-05-10 22:02:31 +0900,40.7,0.012249999999999872,-6.122329999999998,97.9,0.45181000000000004,0.4640599999999999,37.21536,31.09303,0,0,0,0,1,282:FRAME_rest.png,0.0,0.0,0.0,-7.14111,-3.35693,21.3013,
2020-05-10 22:02:31 +0900,40.800000000000004,0.021549999999999514,-6.122329999999998,97.8,0.45500000000000007,0.4765499999999996,37.21536,31.09303,0,0,0,0,1,282:FRAME_rest.png,0.0,0.0,0.0,-3.05176,0.488281,12.5732,
2020-05-10 22:02:31 +0900,40.900000000000006,0.023769999999999847,-6.122329999999998,97.8,0.4486100000000004,0.47238000000000024,37.21536,31.09303,0,0,0,0,1,282:FRAME_rest.png,0.0,0.0,0.0,-1.28174,0.0610352,3.78418,
2020-05-10 22:02:31 +0900,41.0,0.005559999999999121,-6.122329999999998,97.7,0.42949000000000037,0.4350499999999995,37.21536,31.09303,0,0,0,0,1,282:FRAME_rest.png,0.0,0.0,0.0,2.13623,1.77002,-5.37109,
2020-05-10 22:02:31 +0900,41.1,-0.025260000000000282,-7.560729999999992,97.6,0.39463000000000026,0.36937,37.21536,29.654630000000004,0,0,0,0,1,282:FRAME_rest.png,0.0,0.0,0.0,1.09863,5.18799,-2.56348,
2020-05-10 22:02:31 +0900,41.2,-0.025660000000000238,-7.560729999999992,97.4,0.4072800000000001,0.38161999999999985,37.21536,29.654630000000004,0,0,0,0,1,282:FRAME_rest.png,0.0,0.0,0.0,-5.92041,1.40381,-1.15967,
2020-05-10 22:02:31 +0900,41.300000000000004,-0.01731000000000016,-7.560729999999992,97.4,0.4358599999999999,0.41854999999999976,37.21536,29.654630000000004,0,0,0,0,1,282:FRAME_rest.png,0.0,0.0,0.0,-12.8784,-2.44141,2.31934,
2020-05-10 22:02:32 +0900,41.400000000000006,-0.032410000000000494,-8.676529999999993,97.5,0.42630999999999997,0.3938999999999995,37.21536,28.538830000000004,0,0,0,0,1,282:FRAME_rest.png,0.0,0.0,0.0,-10.6201,-5.18799,7.99561,
2020-05-10 22:02:32 +0900,41.5,-0.03834000000000071,-8.676529999999993,97.4,0.41996000000000056,0.38161999999999985,37.21536,28.538830000000004,0,0,0,0,1,282:FRAME_rest.png,0.0,0.0,0.0,-5.5542,-5.85938,12.146,
2020-05-10 22:02:32 +0900,41.6,-0.03791000000000011,-8.676529999999993,97.4,0.4072800000000001,0.36937,37.21536,28.538830000000004,0,0,0,0,1,282:FRAME_rest.png,0.0,0.0,0.0,-5.12695,-4.94385,11.7188,
2020-05-10 22:02:32 +0900,41.7,-0.04921000000000042,-7.560729999999992,97.2,0.3820100000000002,0.33279999999999976,37.21536,29.654630000000004,0,0,0,0,1,282:FRAME_rest.png,0.0,0.0,0.0,1.46484,-1.77002,10.5591,
2020-05-10 22:02:32 +0900,41.800000000000004,-0.03157999999999994,-6.122329999999998,97.3,0.4009499999999999,0.36937,37.21536,31.09303,0,0,0,0,1,282:FRAME_rest.png,0.0,0.0,0.0,2.50244,1.52588,2.92969,
2020-05-10 22:02:32 +0900,41.900000000000006,-0.009999999999999787,-6.122329999999998,97.2,0.4326699999999999,0.4226700000000001,37.21536,31.09303,0,0,0,0,1,282:FRAME_rest.png,0.0,0.0,0.0,2.31934,4.76074,-6.10352,
2020-05-10 22:02:32 +0900,42.0,-0.022880000000000678,-6.122329999999998,97.4,0.41678000000000015,0.3938999999999995,37.21536,31.09303,0,0,0,0,1,282:FRAME_rest.png,0.0,0.0,0.0,5.12695,6.53076,-4.69971,
2020-05-10 22:02:32 +0900,42.1,-0.046510000000000495,-6.122329999999998,97.3,0.39147,0.3449599999999995,37.21536,31.09303,0,0,0,0,1,282:FRAME_rest.png,0.0,0.0,0.0,4.63867,1.0376,-3.23486,
2020-05-10 22:02:32 +0900,42.2,-0.0692800000000009,-7.560729999999992,97.3,0.35373000000000054,0.28444999999999965,37.21536,29.654630000000004,0,0,0,0,1,282:FRAME_rest.png,0.0,0.0,0.0,4.63867,1.0376,-3.23486,
2020-05-10 22:02:32 +0900,42.300000000000004,-0.10433000000000092,-6.122329999999998,97.3,0.3131700000000004,0.20883999999999947,37.21536,31.09303,0,0,0,0,1,282:FRAME_rest.png,0.0,0.0,0.0,-5.31006,-5.37109,-4.76074,
2020-05-10 22:02:33 +0900,42.400000000000006,-0.09246000000000087,-7.560729999999992,97.2,0.3131700000000004,0.22070999999999952,37.21536,29.654630000000004,0,0,0,0,1,282:FRAME_rest.png,0.0,0.0,0.0,-7.87354,-9.09424,-3.2959,
2020-05-10 22:02:33 +0900,42.5,-0.07103000000000037,-7.560729999999992,97.4,0.3474700000000004,0.27644,37.21536,29.654630000000004,0,0,0,0,1,282:FRAME_rest.png,0.0,0.0,0.0,0.183105,-11.4746,5.7373,
2020-05-10 22:02:33 +0900,42.6,-0.0692800000000009,-8.676529999999993,97.2,0.35373000000000054,0.28444999999999965,37.21536,28.538830000000004,0,0,0,0,1,282:FRAME_rest.png,0.0,0.0,0.0,2.31934,-9.39941,10.2539,
2020-05-10 22:02:33 +0900,42.7,-0.06302000000000074,-7.560729999999992,97.2,0.3474700000000004,0.28444999999999965,37.21536,29.654630000000004,0,0,0,0,1,282:FRAME_rest.png,0.0,0.0,0.0,4.08936,-3.60107,1.77002,
2020-05-10 22:02:33 +0900,42.800000000000004,-0.06429000000000062,-7.560729999999992,97.2,0.3287300000000002,0.26443999999999956,37.21536,29.654630000000004,0,0,0,0,1,282:FRAME_rest.png,0.0,0.0,0.0,2.86865,0.12207,-2.01416,
2020-05-10 22:02:33 +0900,42.900000000000006,-0.08401000000000014,-7.560729999999992,97.0,0.30076000000000036,0.21675000000000022,37.21536,29.654630000000004,0,0,0,0,1,282:FRAME_rest.png,0.0,0.0,0.0,2.0752,1.34277,-6.28662,
2020-05-10 22:02:33 +0900,43.0,-0.08143000000000011,-7.560729999999992,96.5,0.31006,0.2286299999999999,37.21536,29.654630000000004,0,0,0,0,1,282:FRAME_rest.png,0.0,0.0,0.0,5.24902,5.92041,-12.3901,
2020-05-10 22:02:33 +0900,43.1,-0.07140000000000057,-6.122329999999998,96.5,0.3318500000000002,0.2604499999999996,37.21536,31.09303,0,0,0,0,1,282:FRAME_rest.png,0.0,0.0,0.0,-3.05176,4.94385,-4.39453,
2020-05-10 22:02:33 +0900,43.2,-0.08990000000000098,-4.095029999999994,96.4,0.3225000000000007,0.2325999999999997,37.21536,33.12033,0,0,0,0,1,282:FRAME_rest.png,0.0,0.0,0.0,-8.48389,-0.244141,0.671387,
2020-05-10 22:02:33 +0900,43.300000000000004,-0.10038000000000036,-6.122329999999998,96.4,0.3131700000000004,0.21279000000000003,37.21536,31.09303,0,0,0,0,1,282:FRAME_rest.png,0.0,0.0,0.0,-5.79834,-8.05664,3.66211,
2020-05-10 22:02:34 +0900,43.400000000000006,-0.10459000000000085,-6.122329999999998,96.4,0.2976600000000005,0.19306999999999963,37.21536,31.09303,0,0,0,0,1,282:FRAME_rest.png,0.0,0.0,0.0,-0.671387,-4.69971,8.91113,
2020-05-10 22:02:34 +0900,43.5,-0.1017500000000009,-7.560729999999992,96.3,0.27910000000000057,0.17734999999999967,37.21536,29.654630000000004,0,0,0,0,1,282:FRAME_rest.png,0.0,0.0,0.0,-2.80762,-1.83105,15.3198,
2020-05-10 22:02:34 +0900,43.6,-0.059350000000000236,-7.560729999999992,96.4,0.30386000000000024,0.24451,37.21536,29.654630000000004,0,0,0,0,1,282:FRAME_rest.png,0.0,0.0,0.0,0.0,0.427246,10.8643,
2020-05-10 22:02:34 +0900,43.7,-0.026400000000000645,-7.560729999999992,96.4,0.3349700000000002,0.30856999999999957,37.21536,29.654630000000004,0,0,0,0,1,282:FRAME_rest.png,0.0,0.0,0.0,0.976562,3.11279,4.5166,
2020-05-10 22:02:34 +0900,43.800000000000004,-0.028210000000000512,-8.676529999999993,96.5,0.3287300000000002,0.3005199999999997,37.21536,28.538830000000004,0,0,0,0,1,282:FRAME_rest.png,0.0,0.0,0.0,2.92969,3.479,0.488281,
2020-05-10 22:02:34 +0900,43.900000000000006,-0.039839999999999876,-7.560729999999992,96.3,0.3162799999999999,0.27644,37.21536,29.654630000000004,0,0,0,0,1,282:FRAME_rest.png,0.0,0.0,0.0,3.05176,7.14111,-3.479,
2020-05-10 22:02:34 +0900,44.0,-0.0619600000000009,-7.560729999999992,96.0,0.2945600000000006,0.2325999999999997,37.21536,29.654630000000004,0,0,0,0,1,282:FRAME_rest.png,0.0,0.0,0.0,0.427246,2.74658,-1.89209,
2020-05-10 22:02:34 +0900,44.1,-0.0894200000000005,-7.560729999999992,95.7,0.2667700000000002,0.17734999999999967,37.21536,29.654630000000004,0,0,0,0,1,282:FRAME_rest.png,0.0,0.0,0.0,-4.5166,-0.305176,3.2959,
2020-05-10 22:02:34 +0900,44.2,-0.07299000000000078,-7.560729999999992,95.8,0.2976600000000005,0.2246699999999997,37.21536,29.654630000000004,0,0,0,0,1,282:FRAME_rest.png,0.0,0.0,0.0,-8.42285,-3.35693,8.05664,
2020-05-10 22:02:34 +0900,44.300000000000004,-0.054530000000000634,-6.122329999999998,95.9,0.3349700000000002,0.2804399999999996,37.21536,31.09303,0,0,0,0,1,282:FRAME_rest.png,0.0,0.0,0.0,-7.44629,-3.2959,9.70459,
2020-05-10 22:02:35 +0900,44.400000000000006,-0.06341000000000019,-6.122329999999998,95.8,0.3318500000000002,0.26844,37.21536,31.09303,0,0,0,0,1,282:FRAME_rest.png,0.0,0.0,0.0,-4.57764,-2.86865,11.7798,
2020-05-10 22:02:35 +0900,44.5,-0.07314000000000043,-7.560729999999992,95.7,0.3256200000000007,0.25248000000000026,37.21536,29.654630000000004,0,0,0,0,1,282:FRAME_rest.png,0.0,0.0,0.0,-1.2207,-3.60107,9.46045,
2020-05-10 22:02:35 +0900,44.6,-0.0845400000000005,-6.122329999999998,95.8,0.3131700000000004,0.2286299999999999,37.21536,31.09303,0,0,0,0,1,282:FRAME_rest.png,0.0,0.0,0.0,3.54004,-3.84521,4.69971,
2020-05-10 22:02:35 +0900,44.7,-0.11102000000000078,-7.560729999999992,95.9,0.28837000000000046,0.17734999999999967,37.21536,29.654630000000004,0,0,0,0,1,282:FRAME_rest.png,0.0,0.0,0.0,3.54004,0.427246,-0.610352,
2020-05-10 22:02:35 +0900,44.800000000000004,-0.10264000000000006,-7.560729999999992,95.9,0.3193900000000003,0.21675000000000022,37.21536,29.654630000000004,0,0,0,0,1,282:FRAME_rest.png,0.0,0.0,0.0,4.3335,3.41797,-4.94385,
2020-05-10 22:02:35 +0900,44.900000000000006,-0.10296000000000038,-7.560729999999992,96.1,0.3474700000000004,0.24451,37.21536,29.654630000000004,0,0,0,0,1,282:FRAME_rest.png,0.0,0.0,0.0,3.11279,10.9863,6.71387,
2020-05-10 22:02:35 +0900,45.0,-0.12758999999999965,-7.560729999999992,96.2,0.34433999999999987,0.21675000000000022,37.21536,29.654630000000004,0,0,0,0,1,282:FRAME_rest.png,0.0,0.0,0.0,1.95312,1.46484,8.23975,
